Deck_ACC,Deck_CRESP,Deck_DurationError,Deck_OnsetDelay,Deck_OnsetToOnsetTime,ExperimentName,ExperimentPlatform,ExperimentVersion,List1_Cycle,Running,cycle_start_date,day,expected_trial_count,experiment_name,internal_node_id,lang,last_commit,on_mobile,role,rt,screen_availHeight,screen_availWidth,screen_height,screen_width,session_id,session_uuid,study_id,subject_id,task_section,time_elapsed,trial_index,trial_type,useragent,view_history,window_innerHeight,window_innerWidth,DeckA,DeckB,DeckC,DeckD,Deck_OnsetTime,Deck_RESP,Deck_RT,Deck_RTTime,List1_Sample,loss_event,response,totalsum,var,stimulus
0,1234,-999999,0,0,IowaTask-v2.0,-mobile,jspsych-0.3a-mobile,1,List1,2024-04-29,0,0,projectseed-iowa-production,0.0-0.0-2.0-0.0,eng,6e64b31c6348ac9d094febdaa4fdb26e97e83af1,True,adolescent,2368.0,812,375,812,375,5505110d-31b8-47ca-9f47-6c45520c1706,5505110d-31b8-47ca-9f47-6c45520c1706,projectseed_production_april2024,6,,13411,2,html-button-response,"Mozilla/5.0 (iPhone; CPU iPhone OS 17_4 like Mac OS X) AppleWebKit/605.1.15 (KHTML, like Gecko) CriOS/124.0.6367.88 Mobile/15E148 Safari/604.1",,1662,980,100.0,100.0,50.0,50.0,11641.0,A,2368.0,14009.0,1.0,0.0,0.0,2100.0,100.0,
0,1234,-999999,0,0,IowaTask-v2.0,-mobile,jspsych-0.3a-mobile,1,List1,2024-04-29,0,0,projectseed-iowa-production,0.0-0.0-2.0-0.1,eng,6e64b31c6348ac9d094febdaa4fdb26e97e83af1,True,adolescent,940.0,812,375,812,375,5505110d-31b8-47ca-9f47-6c45520c1706,5505110d-31b8-47ca-9f47-6c45520c1706,projectseed_production_april2024,6,,15663,6,html-button-response,"Mozilla/5.0 (iPhone; CPU iPhone OS 17_4 like Mac OS X) AppleWebKit/605.1.15 (KHTML, like Gecko) CriOS/124.0.6367.88 Mobile/15E148 Safari/604.1",,1662,980,-250.0,100.0,50.0,50.0,15320.000000000002,D,940.0,16260.000000000002,2.0,0.0,3.0,2150.0,50.0,
0,1234,-999999,0,0,IowaTask-v2.0,-mobile,jspsych-0.3a-mobile,1,List1,2024-04-29,0,0,projectseed-iowa-production,0.0-0.0-2.0-0.2,eng,6e64b31c6348ac9d094febdaa4fdb26e97e83af1,True,adolescent,619.0,812,375,812,375,5505110d-31b8-47ca-9f47-6c45520c1706,5505110d-31b8-47ca-9f47-6c45520c1706,projectseed_production_april2024,6,,17597,10,html-button-response,"Mozilla/5.0 (iPhone; CPU iPhone OS 17_4 like Mac OS X) AppleWebKit/605.1.15 (KHTML, like Gecko) CriOS/124.0.6367.88 Mobile/15E148 Safari/604.1",,1662,980,-250.0,100.0,50.0,50.0,17575.0,B,619.0,18194.0,3.0,0.0,1.0,2250.0,100.0,
0,1234,-999999,0,0,IowaTask-v2.0,-mobile,jspsych-0.3a-mobile,1,List1,2024-04-29,0,0,projectseed-iowa-production,0.0-0.0-2.0-0.3,eng,6e64b31c6348ac9d094febdaa4fdb26e97e83af1,True,adolescent,789.0,812,375,812,375,5505110d-31b8-47ca-9f47-6c45520c1706,5505110d-31b8-47ca-9f47-6c45520c1706,projectseed_production_april2024,6,,19699,14,html-button-response,"Mozilla/5.0 (iPhone; CPU iPhone OS 17_4 like Mac OS X) AppleWebKit/605.1.15 (KHTML, like Gecko) CriOS/124.0.6367.88 Mobile/15E148 Safari/604.1",,1662,980,-250.0,100.0,50.0,50.0,19507.0,A,789.0,20296.0,4.0,-350.0,0.0,2000.0,-250.0,
0,1234,-999999,0,0,IowaTask-v2.0,-mobile,jspsych-0.3a-mobile,1,List1,2024-04-29,0,0,projectseed-iowa-production,0.0-0.0-2.0-0.4,eng,6e64b31c6348ac9d094febdaa4fdb26e97e83af1,True,adolescent,1204.0,812,375,812,375,5505110d-31b8-47ca-9f47-6c45520c1706,5505110d-31b8-47ca-9f47-6c45520c1706,projectseed_production_april2024,6,,23214,18,html-button-response,"Mozilla/5.0 (iPhone; CPU iPhone OS 17_4 like Mac OS X) AppleWebKit/605.1.15 (KHTML, like Gecko) CriOS/124.0.6367.88 Mobile/15E148 Safari/604.1",,1662,980,-200.0,100.0,50.0,50.0,22608.0,C,1204.0,23812.0,5.0,0.0,2.0,2050.0,50.0,
0,1234,-999999,0,0,IowaTask-v2.0,-mobile,jspsych-0.3a-mobile,1,List1,2024-04-29,0,0,projectseed-iowa-production,0.0-0.0-2.0-0.5,eng,6e64b31c6348ac9d094febdaa4fdb26e97e83af1,True,adolescent,1207.0,812,375,812,375,5505110d-31b8-47ca-9f47-6c45520c1706,5505110d-31b8-47ca-9f47-6c45520c1706,projectseed_production_april2024,6,,25734,22,html-button-response,"Mozilla/5.0 (iPhone; CPU iPhone OS 17_4 like Mac OS X) AppleWebKit/605.1.15 (KHTML, like Gecko) CriOS/124.0.6367.88 Mobile/15E148 Safari/604.1",,1662,980,-200.0,100.0,0.0,50.0,25124.0,C,1207.0,26331.0,6.0,-50.0,2.0,2050.0,0.0,
0,1234,-999999,0,0,IowaTask-v2.0,-mobile,jspsych-0.3a-mobile,1,List1,2024-04-29,0,0,projectseed-iowa-production,0.0-0.0-2.0-0.6,eng,6e64b31c6348ac9d094febdaa4fdb26e97e83af1,True,adolescent,727.0,812,375,812,375,5505110d-31b8-47ca-9f47-6c45520c1706,5505110d-31b8-47ca-9f47-6c45520c1706,projectseed_production_april2024,6,,28773,26,html-button-response,"Mozilla/5.0 (iPhone; CPU iPhone OS 17_4 like Mac OS X) AppleWebKit/605.1.15 (KHTML, like Gecko) CriOS/124.0.6367.88 Mobile/15E148 Safari/604.1",,1662,980,-200.0,100.0,-25.0,50.0,28643.0,B,727.0,29370.0,7.0,0.0,1.0,2150.0,100.0,
0,1234,-999999,0,0,IowaTask-v2.0,-mobile,jspsych-0.3a-mobile,1,List1,2024-04-29,0,0,projectseed-iowa-production,0.0-0.0-2.0-0.7,eng,6e64b31c6348ac9d094febdaa4fdb26e97e83af1,True,adolescent,1890.0,812,375,812,375,5505110d-31b8-47ca-9f47-6c45520c1706,5505110d-31b8-47ca-9f47-6c45520c1706,projectseed_production_april2024,6,,31973,30,html-button-response,"Mozilla/5.0 (iPhone; CPU iPhone OS 17_4 like Mac OS X) AppleWebKit/605.1.15 (KHTML, like Gecko) CriOS/124.0.6367.88 Mobile/15E148 Safari/604.1",,1662,980,-200.0,100.0,-25.0,50.0,30680.0,B,1890.0,32570.0,8.0,0.0,1.0,2250.0,100.0,
0,1234,-999999,0,0,IowaTask-v2.0,-mobile,jspsych-0.3a-mobile,1,List1,2024-04-29,0,0,projectseed-iowa-production,0.0-0.0-2.0-0.8,eng,6e64b31c6348ac9d094febdaa4fdb26e97e83af1,True,adolescent,1239.0,812,375,812,375,5505110d-31b8-47ca-9f47-6c45520c1706,5505110d-31b8-47ca-9f47-6c45520c1706,projectseed_production_april2024,6,,34523,34,html-button-response,"Mozilla/5.0 (iPhone; CPU iPhone OS 17_4 like Mac OS X) AppleWebKit/605.1.15 (KHTML, like Gecko) CriOS/124.0.6367.88 Mobile/15E148 Safari/604.1",,1662,980,-200.0,100.0,-25.0,50.0,33881.0,D,1239.0,35120.0,9.0,0.0,3.0,2300.0,50.0,
0,1234,-999999,0,0,IowaTask-v2.0,-mobile,jspsych-0.3a-mobile,1,List1,2024-04-29,0,0,projectseed-iowa-production,0.0-0.0-2.0-0.9,eng,6e64b31c6348ac9d094febdaa4fdb26e97e83af1,True,adolescent,745.0,812,375,812,375,5505110d-31b8-47ca-9f47-6c45520c1706,5505110d-31b8-47ca-9f47-6c45520c1706,projectseed_production_april2024,6,,36578,38,html-button-response,"Mozilla/5.0 (iPhone; CPU iPhone OS 17_4 like Mac OS X) AppleWebKit/605.1.15 (KHTML, like Gecko) CriOS/124.0.6367.88 Mobile/15E148 Safari/604.1",,1662,980,-200.0,100.0,-25.0,50.0,36431.0,A,745.0,37176.0,10.0,-300.0,0.0,2100.0,-200.0,
0,1234,-999999,0,0,IowaTask-v2.0,-mobile,jspsych-0.3a-mobile,1,List1,2024-04-29,0,0,projectseed-iowa-production,0.0-0.0-2.0-0.10,eng,6e64b31c6348ac9d094febdaa4fdb26e97e83af1,True,adolescent,388.0,812,375,812,375,5505110d-31b8-47ca-9f47-6c45520c1706,5505110d-31b8-47ca-9f47-6c45520c1706,projectseed_production_april2024,6,,39278,42,html-button-response,"Mozilla/5.0 (iPhone; CPU iPhone OS 17_4 like Mac OS X) AppleWebKit/605.1.15 (KHTML, like Gecko) CriOS/124.0.6367.88 Mobile/15E148 Safari/604.1",,1662,980,100.0,100.0,-25.0,50.0,39487.0,B,388.0,39875.0,11.0,0.0,1.0,2200.0,100.0,
0,1234,-999999,0,0,IowaTask-v2.0,-mobile,jspsych-0.3a-mobile,1,List1,2024-04-29,0,0,projectseed-iowa-production,0.0-0.0-2.0-0.11,eng,6e64b31c6348ac9d094febdaa4fdb26e97e83af1,True,adolescent,494.0,812,375,812,375,5505110d-31b8-47ca-9f47-6c45520c1706,5505110d-31b8-47ca-9f47-6c45520c1706,projectseed_production_april2024,6,,41082,46,html-button-response,"Mozilla/5.0 (iPhone; CPU iPhone OS 17_4 like Mac OS X) AppleWebKit/605.1.15 (KHTML, like Gecko) CriOS/124.0.6367.88 Mobile/15E148 Safari/604.1",,1662,980,100.0,100.0,-25.0,50.0,41185.0,B,494.0,41679.0,12.0,0.0,1.0,2300.0,100.0,
0,1234,-999999,0,0,IowaTask-v2.0,-mobile,jspsych-0.3a-mobile,1,List1,2024-04-29,0,0,projectseed-iowa-production,0.0-0.0-2.0-0.12,eng,6e64b31c6348ac9d094febdaa4fdb26e97e83af1,True,adolescent,424.0,812,375,812,375,5505110d-31b8-47ca-9f47-6c45520c1706,5505110d-31b8-47ca-9f47-6c45520c1706,projectseed_production_april2024,6,,42817,50,html-button-response,"Mozilla/5.0 (iPhone; CPU iPhone OS 17_4 like Mac OS X) AppleWebKit/605.1.15 (KHTML, like Gecko) CriOS/124.0.6367.88 Mobile/15E148 Safari/604.1",,1662,980,100.0,100.0,-25.0,50.0,42990.0,B,424.0,43414.0,13.0,0.0,1.0,2400.0,100.0,
0,1234,-999999,0,0,IowaTask-v2.0,-mobile,jspsych-0.3a-mobile,1,List1,2024-04-29,0,0,projectseed-iowa-production,0.0-0.0-2.0-0.13,eng,6e64b31c6348ac9d094febdaa4fdb26e97e83af1,True,adolescent,372.0,812,375,812,375,5505110d-31b8-47ca-9f47-6c45520c1706,5505110d-31b8-47ca-9f47-6c45520c1706,projectseed_production_april2024,6,,44499,54,html-button-response,"Mozilla/5.0 (iPhone; CPU iPhone OS 17_4 like Mac OS X) AppleWebKit/605.1.15 (KHTML, like Gecko) CriOS/124.0.6367.88 Mobile/15E148 Safari/604.1",,1662,980,100.0,100.0,-25.0,50.0,44724.0,B,372.0,45096.0,14.0,0.0,1.0,2500.0,100.0,
0,1234,-999999,0,0,IowaTask-v2.0,-mobile,jspsych-0.3a-mobile,1,List1,2024-04-29,0,0,projectseed-iowa-production,0.0-0.0-2.0-0.14,eng,6e64b31c6348ac9d094febdaa4fdb26e97e83af1,True,adolescent,406.0,812,375,812,375,5505110d-31b8-47ca-9f47-6c45520c1706,5505110d-31b8-47ca-9f47-6c45520c1706,projectseed_production_april2024,6,,46216,58,html-button-response,"Mozilla/5.0 (iPhone; CPU iPhone OS 17_4 like Mac OS X) AppleWebKit/605.1.15 (KHTML, like Gecko) CriOS/124.0.6367.88 Mobile/15E148 Safari/604.1",,1662,980,100.0,100.0,-25.0,50.0,46408.0,B,406.0,46814.0,15.0,0.0,1.0,2600.0,100.0,
0,1234,-999999,0,0,IowaTask-v2.0,-mobile,jspsych-0.3a-mobile,1,List1,2024-04-29,0,0,projectseed-iowa-production,0.0-0.0-2.0-0.15,eng,6e64b31c6348ac9d094febdaa4fdb26e97e83af1,True,adolescent,394.0,812,375,812,375,5505110d-31b8-47ca-9f47-6c45520c1706,5505110d-31b8-47ca-9f47-6c45520c1706,projectseed_production_april2024,6,,47920,62,html-button-response,"Mozilla/5.0 (iPhone; CPU iPhone OS 17_4 like Mac OS X) AppleWebKit/605.1.15 (KHTML, like Gecko) CriOS/124.0.6367.88 Mobile/15E148 Safari/604.1",,1662,980,100.0,-1150.0,-25.0,50.0,48124.0,B,394.0,48518.0,16.0,-1250.0,1.0,1450.0,-1150.0,
0,1234,-999999,0,0,IowaTask-v2.0,-mobile,jspsych-0.3a-mobile,1,List1,2024-04-29,0,0,projectseed-iowa-production,0.0-0.0-2.0-0.16,eng,6e64b31c6348ac9d094febdaa4fdb26e97e83af1,True,adolescent,410.0,812,375,812,375,5505110d-31b8-47ca-9f47-6c45520c1706,5505110d-31b8-47ca-9f47-6c45520c1706,projectseed_production_april2024,6,,50640,66,html-button-response,"Mozilla/5.0 (iPhone; CPU iPhone OS 17_4 like Mac OS X) AppleWebKit/605.1.15 (KHTML, like Gecko) CriOS/124.0.6367.88 Mobile/15E148 Safari/604.1",,1662,980,100.0,100.0,-25.0,50.0,50827.0,A,410.0,51237.0,17.0,0.0,0.0,1550.0,100.0,
0,1234,-999999,0,0,IowaTask-v2.0,-mobile,jspsych-0.3a-mobile,1,List1,2024-04-29,0,0,projectseed-iowa-production,0.0-0.0-2.0-0.17,eng,6e64b31c6348ac9d094febdaa4fdb26e97e83af1,True,adolescent,406.0,812,375,812,375,5505110d-31b8-47ca-9f47-6c45520c1706,5505110d-31b8-47ca-9f47-6c45520c1706,projectseed_production_april2024,6,,52357,70,html-button-response,"Mozilla/5.0 (iPhone; CPU iPhone OS 17_4 like Mac OS X) AppleWebKit/605.1.15 (KHTML, like Gecko) CriOS/124.0.6367.88 Mobile/15E148 Safari/604.1",,1662,980,-100.0,100.0,-25.0,50.0,52549.0,B,406.0,52955.0,18.0,0.0,1.0,1650.0,100.0,
0,1234,-999999,0,0,IowaTask-v2.0,-mobile,jspsych-0.3a-mobile,1,List1,2024-04-29,0,0,projectseed-iowa-production,0.0-0.0-2.0-0.18,eng,6e64b31c6348ac9d094febdaa4fdb26e97e83af1,True,adolescent,601.0,812,375,812,375,5505110d-31b8-47ca-9f47-6c45520c1706,5505110d-31b8-47ca-9f47-6c45520c1706,projectseed_production_april2024,6,,54275,74,html-button-response,"Mozilla/5.0 (iPhone; CPU iPhone OS 17_4 like Mac OS X) AppleWebKit/605.1.15 (KHTML, like Gecko) CriOS/124.0.6367.88 Mobile/15E148 Safari/604.1",,1662,980,-100.0,100.0,-25.0,50.0,54272.00000000001,A,601.0,54873.00000000001,19.0,-200.0,0.0,1550.0,-100.0,
0,1234,-999999,0,0,IowaTask-v2.0,-mobile,jspsych-0.3a-mobile,1,List1,2024-04-29,0,0,projectseed-iowa-production,0.0-0.0-2.0-0.19,eng,6e64b31c6348ac9d094febdaa4fdb26e97e83af1,True,adolescent,358.0,812,375,812,375,5505110d-31b8-47ca-9f47-6c45520c1706,5505110d-31b8-47ca-9f47-6c45520c1706,projectseed_production_april2024,6,,56945,78,html-button-response,"Mozilla/5.0 (iPhone; CPU iPhone OS 17_4 like Mac OS X) AppleWebKit/605.1.15 (KHTML, like Gecko) CriOS/124.0.6367.88 Mobile/15E148 Safari/604.1",,1662,980,100.0,100.0,-25.0,50.0,57185.0,B,358.0,57543.0,20.0,0.0,1.0,1650.0,100.0,
0,1234,-999999,0,0,IowaTask-v2.0,-mobile,jspsych-0.3a-mobile,1,List1,2024-04-29,0,0,projectseed-iowa-production,0.0-0.0-2.0-0.20,eng,6e64b31c6348ac9d094febdaa4fdb26e97e83af1,True,adolescent,376.0,812,375,812,375,5505110d-31b8-47ca-9f47-6c45520c1706,5505110d-31b8-47ca-9f47-6c45520c1706,projectseed_production_april2024,6,,58633,82,html-button-response,"Mozilla/5.0 (iPhone; CPU iPhone OS 17_4 like Mac OS X) AppleWebKit/605.1.15 (KHTML, like Gecko) CriOS/124.0.6367.88 Mobile/15E148 Safari/604.1",,1662,980,100.0,100.0,-25.0,50.0,58855.0,B,376.0,59231.0,21.0,0.0,1.0,1750.0,100.0,
0,1234,-999999,0,0,IowaTask-v2.0,-mobile,jspsych-0.3a-mobile,1,List1,2024-04-29,0,0,projectseed-iowa-production,0.0-0.0-2.0-0.21,eng,6e64b31c6348ac9d094febdaa4fdb26e97e83af1,True,adolescent,98.0,812,375,812,375,5505110d-31b8-47ca-9f47-6c45520c1706,5505110d-31b8-47ca-9f47-6c45520c1706,projectseed_production_april2024,6,,60040,86,html-button-response,"Mozilla/5.0 (iPhone; CPU iPhone OS 17_4 like Mac OS X) AppleWebKit/605.1.15 (KHTML, like Gecko) CriOS/124.0.6367.88 Mobile/15E148 Safari/604.1",,1662,980,100.0,100.0,-25.0,50.0,60539.0,B,98.0,60637.0,22.0,0.0,1.0,1850.0,100.0,
0,1234,-999999,0,0,IowaTask-v2.0,-mobile,jspsych-0.3a-mobile,1,List1,2024-04-29,0,0,projectseed-iowa-production,0.0-0.0-2.0-0.22,eng,6e64b31c6348ac9d094febdaa4fdb26e97e83af1,True,adolescent,380.0,812,375,812,375,5505110d-31b8-47ca-9f47-6c45520c1706,5505110d-31b8-47ca-9f47-6c45520c1706,projectseed_production_april2024,6,,61728,90,html-button-response,"Mozilla/5.0 (iPhone; CPU iPhone OS 17_4 like Mac OS X) AppleWebKit/605.1.15 (KHTML, like Gecko) CriOS/124.0.6367.88 Mobile/15E148 Safari/604.1",,1662,980,100.0,100.0,-25.0,50.0,61946.0,B,380.0,62326.0,23.0,0.0,1.0,1950.0,100.0,
0,1234,-999999,0,0,IowaTask-v2.0,-mobile,jspsych-0.3a-mobile,1,List1,2024-04-29,0,0,projectseed-iowa-production,0.0-0.0-2.0-0.23,eng,6e64b31c6348ac9d094febdaa4fdb26e97e83af1,True,adolescent,174.0,812,375,812,375,5505110d-31b8-47ca-9f47-6c45520c1706,5505110d-31b8-47ca-9f47-6c45520c1706,projectseed_production_april2024,6,,63212,94,html-button-response,"Mozilla/5.0 (iPhone; CPU iPhone OS 17_4 like Mac OS X) AppleWebKit/605.1.15 (KHTML, like Gecko) CriOS/124.0.6367.88 Mobile/15E148 Safari/604.1",,1662,980,100.0,100.0,-25.0,50.0,63636.0,B,174.0,63810.0,24.0,0.0,1.0,2050.0,100.0,
0,1234,-999999,0,0,IowaTask-v2.0,-mobile,jspsych-0.3a-mobile,1,List1,2024-04-29,0,0,projectseed-iowa-production,0.0-0.0-2.0-0.24,eng,6e64b31c6348ac9d094febdaa4fdb26e97e83af1,True,adolescent,228.0,812,375,812,375,5505110d-31b8-47ca-9f47-6c45520c1706,5505110d-31b8-47ca-9f47-6c45520c1706,projectseed_production_april2024,6,,64749,98,html-button-response,"Mozilla/5.0 (iPhone; CPU iPhone OS 17_4 like Mac OS X) AppleWebKit/605.1.15 (KHTML, like Gecko) CriOS/124.0.6367.88 Mobile/15E148 Safari/604.1",,1662,980,100.0,-1150.0,-25.0,50.0,65119.00000000001,B,228.0,65347.00000000001,25.0,-1250.0,1.0,900.0,-1150.0,
0,1234,-999999,0,0,IowaTask-v2.0,-mobile,jspsych-0.3a-mobile,1,List1,2024-04-29,0,0,projectseed-iowa-production,0.0-0.0-2.0-0.25,eng,6e64b31c6348ac9d094febdaa4fdb26e97e83af1,True,adolescent,479.0,812,375,812,375,5505110d-31b8-47ca-9f47-6c45520c1706,5505110d-31b8-47ca-9f47-6c45520c1706,projectseed_production_april2024,6,,67536,102,html-button-response,"Mozilla/5.0 (iPhone; CPU iPhone OS 17_4 like Mac OS X) AppleWebKit/605.1.15 (KHTML, like Gecko) CriOS/124.0.6367.88 Mobile/15E148 Safari/604.1",,1662,980,100.0,100.0,-25.0,50.0,67655.0,B,479.0,68134.0,26.0,0.0,1.0,1000.0,100.0,
0,1234,-999999,0,0,IowaTask-v2.0,-mobile,jspsych-0.3a-mobile,1,List1,2024-04-29,0,0,projectseed-iowa-production,0.0-0.0-2.0-0.26,eng,6e64b31c6348ac9d094febdaa4fdb26e97e83af1,True,adolescent,83.0,812,375,812,375,5505110d-31b8-47ca-9f47-6c45520c1706,5505110d-31b8-47ca-9f47-6c45520c1706,projectseed_production_april2024,6,,68929,106,html-button-response,"Mozilla/5.0 (iPhone; CPU iPhone OS 17_4 like Mac OS X) AppleWebKit/605.1.15 (KHTML, like Gecko) CriOS/124.0.6367.88 Mobile/15E148 Safari/604.1",,1662,980,100.0,100.0,-25.0,50.0,69443.0,B,83.0,69526.0,27.0,0.0,1.0,1100.0,100.0,
0,1234,-999999,0,0,IowaTask-v2.0,-mobile,jspsych-0.3a-mobile,1,List1,2024-04-29,0,0,projectseed-iowa-production,0.0-0.0-2.0-0.27,eng,6e64b31c6348ac9d094febdaa4fdb26e97e83af1,True,adolescent,214.0,812,375,812,375,5505110d-31b8-47ca-9f47-6c45520c1706,5505110d-31b8-47ca-9f47-6c45520c1706,projectseed_production_april2024,6,,70452,110,html-button-response,"Mozilla/5.0 (iPhone; CPU iPhone OS 17_4 like Mac OS X) AppleWebKit/605.1.15 (KHTML, like Gecko) CriOS/124.0.6367.88 Mobile/15E148 Safari/604.1",,1662,980,100.0,100.0,-25.0,50.0,70835.0,B,214.0,71049.0,28.0,0.0,1.0,1200.0,100.0,
0,1234,-999999,0,0,IowaTask-v2.0,-mobile,jspsych-0.3a-mobile,1,List1,2024-04-29,0,0,projectseed-iowa-production,0.0-0.0-2.0-0.28,eng,6e64b31c6348ac9d094febdaa4fdb26e97e83af1,True,adolescent,71.0,812,375,812,375,5505110d-31b8-47ca-9f47-6c45520c1706,5505110d-31b8-47ca-9f47-6c45520c1706,projectseed_production_april2024,6,,71832,114,html-button-response,"Mozilla/5.0 (iPhone; CPU iPhone OS 17_4 like Mac OS X) AppleWebKit/605.1.15 (KHTML, like Gecko) CriOS/124.0.6367.88 Mobile/15E148 Safari/604.1",,1662,980,100.0,100.0,-25.0,50.0,72358.0,B,71.0,72429.0,29.0,0.0,1.0,1300.0,100.0,
0,1234,-999999,0,0,IowaTask-v2.0,-mobile,jspsych-0.3a-mobile,1,List1,2024-04-29,0,0,projectseed-iowa-production,0.0-0.0-2.0-0.29,eng,6e64b31c6348ac9d094febdaa4fdb26e97e83af1,True,adolescent,78.0,812,375,812,375,5505110d-31b8-47ca-9f47-6c45520c1706,5505110d-31b8-47ca-9f47-6c45520c1706,projectseed_production_april2024,6,,73217,118,html-button-response,"Mozilla/5.0 (iPhone; CPU iPhone OS 17_4 like Mac OS X) AppleWebKit/605.1.15 (KHTML, like Gecko) CriOS/124.0.6367.88 Mobile/15E148 Safari/604.1",,1662,980,100.0,-1150.0,-25.0,50.0,73736.0,B,78.0,73814.0,30.0,-1250.0,1.0,150.0,-1150.0,
0,1234,-999999,0,0,IowaTask-v2.0,-mobile,jspsych-0.3a-mobile,1,List1,2024-04-29,0,0,projectseed-iowa-production,0.0-0.0-2.0-0.0,eng,6e64b31c6348ac9d094febdaa4fdb26e97e83af1,True,adolescent,1011.0,896,414,896,414,88db5135-3b75-423a-9a41-a83421c1644e,88db5135-3b75-423a-9a41-a83421c1644e,projectseed_production_april2024,6,,40609,2,html-button-response,"Mozilla/5.0 (iPhone; CPU iPhone OS 16_1 like Mac OS X) AppleWebKit/605.1.15 (KHTML, like Gecko) Version/16.1 Mobile/15E148 Safari/604.1",,1693,980,100.0,100.0,50.0,50.0,39822.0,B,1011.0,40833.0,1.0,0.0,1.0,2100.0,100.0,
0,1234,-999999,0,0,IowaTask-v2.0,-mobile,jspsych-0.3a-mobile,1,List1,2024-04-29,0,0,projectseed-iowa-production,0.0-0.0-2.0-0.1,eng,6e64b31c6348ac9d094febdaa4fdb26e97e83af1,True,adolescent,1206.0,896,414,896,414,88db5135-3b75-423a-9a41-a83421c1644e,88db5135-3b75-423a-9a41-a83421c1644e,projectseed_production_april2024,6,,43132,6,html-button-response,"Mozilla/5.0 (iPhone; CPU iPhone OS 16_1 like Mac OS X) AppleWebKit/605.1.15 (KHTML, like Gecko) Version/16.1 Mobile/15E148 Safari/604.1",,1693,980,100.0,100.0,50.0,50.0,42149.00000000001,B,1206.0,43355.00000000001,2.0,0.0,1.0,2200.0,100.0,
0,1234,-999999,0,0,IowaTask-v2.0,-mobile,jspsych-0.3a-mobile,1,List1,2024-04-29,0,0,projectseed-iowa-production,0.0-0.0-2.0-0.2,eng,6e64b31c6348ac9d094febdaa4fdb26e97e83af1,True,adolescent,1781.0,896,414,896,414,88db5135-3b75-423a-9a41-a83421c1644e,88db5135-3b75-423a-9a41-a83421c1644e,projectseed_production_april2024,6,,46226,10,html-button-response,"Mozilla/5.0 (iPhone; CPU iPhone OS 16_1 like Mac OS X) AppleWebKit/605.1.15 (KHTML, like Gecko) Version/16.1 Mobile/15E148 Safari/604.1",,1693,980,100.0,100.0,50.0,50.0,44668.0,D,1781.0,46449.0,3.0,0.0,3.0,2250.0,50.0,
0,1234,-999999,0,0,IowaTask-v2.0,-mobile,jspsych-0.3a-mobile,1,List1,2024-04-29,0,0,projectseed-iowa-production,0.0-0.0-2.0-0.3,eng,6e64b31c6348ac9d094febdaa4fdb26e97e83af1,True,adolescent,1277.0,896,414,896,414,88db5135-3b75-423a-9a41-a83421c1644e,88db5135-3b75-423a-9a41-a83421c1644e,projectseed_production_april2024,6,,48811,14,html-button-response,"Mozilla/5.0 (iPhone; CPU iPhone OS 16_1 like Mac OS X) AppleWebKit/605.1.15 (KHTML, like Gecko) Version/16.1 Mobile/15E148 Safari/604.1",,1693,980,100.0,100.0,50.0,50.0,47757.0,D,1277.0,49034.0,4.0,0.0,3.0,2300.0,50.0,
0,1234,-999999,0,0,IowaTask-v2.0,-mobile,jspsych-0.3a-mobile,1,List1,2024-04-29,0,0,projectseed-iowa-production,0.0-0.0-2.0-0.4,eng,6e64b31c6348ac9d094febdaa4fdb26e97e83af1,True,adolescent,1839.0,896,414,896,414,88db5135-3b75-423a-9a41-a83421c1644e,88db5135-3b75-423a-9a41-a83421c1644e,projectseed_production_april2024,6,,51960,18,html-button-response,"Mozilla/5.0 (iPhone; CPU iPhone OS 16_1 like Mac OS X) AppleWebKit/605.1.15 (KHTML, like Gecko) Version/16.1 Mobile/15E148 Safari/604.1",,1693,980,100.0,100.0,50.0,50.0,50344.0,A,1839.0,52183.0,5.0,0.0,0.0,2400.0,100.0,
0,1234,-999999,0,0,IowaTask-v2.0,-mobile,jspsych-0.3a-mobile,1,List1,2024-04-29,0,0,projectseed-iowa-production,0.0-0.0-2.0-0.5,eng,6e64b31c6348ac9d094febdaa4fdb26e97e83af1,True,adolescent,1130.0,896,414,896,414,88db5135-3b75-423a-9a41-a83421c1644e,88db5135-3b75-423a-9a41-a83421c1644e,projectseed_production_april2024,6,,54401,22,html-button-response,"Mozilla/5.0 (iPhone; CPU iPhone OS 16_1 like Mac OS X) AppleWebKit/605.1.15 (KHTML, like Gecko) Version/16.1 Mobile/15E148 Safari/604.1",,1693,980,-250.0,100.0,50.0,50.0,53494.0,A,1130.0,54624.0,6.0,-350.0,0.0,2150.0,-250.0,
0,1234,-999999,0,0,IowaTask-v2.0,-mobile,jspsych-0.3a-mobile,1,List1,2024-04-29,0,0,projectseed-iowa-production,0.0-0.0-2.0-0.6,eng,6e64b31c6348ac9d094febdaa4fdb26e97e83af1,True,adolescent,1437.0,896,414,896,414,88db5135-3b75-423a-9a41-a83421c1644e,88db5135-3b75-423a-9a41-a83421c1644e,projectseed_production_april2024,6,,58151,26,html-button-response,"Mozilla/5.0 (iPhone; CPU iPhone OS 16_1 like Mac OS X) AppleWebKit/605.1.15 (KHTML, like Gecko) Version/16.1 Mobile/15E148 Safari/604.1",,1693,980,-200.0,100.0,50.0,50.0,56937.0,B,1437.0,58374.0,7.0,0.0,1.0,2250.0,100.0,
0,1234,-999999,0,0,IowaTask-v2.0,-mobile,jspsych-0.3a-mobile,1,List1,2024-04-29,0,0,projectseed-iowa-production,0.0-0.0-2.0-0.7,eng,6e64b31c6348ac9d094febdaa4fdb26e97e83af1,True,adolescent,824.0,896,414,896,414,88db5135-3b75-423a-9a41-a83421c1644e,88db5135-3b75-423a-9a41-a83421c1644e,projectseed_production_april2024,6,,60288,30,html-button-response,"Mozilla/5.0 (iPhone; CPU iPhone OS 16_1 like Mac OS X) AppleWebKit/605.1.15 (KHTML, like Gecko) Version/16.1 Mobile/15E148 Safari/604.1",,1693,980,-200.0,100.0,50.0,50.0,59687.0,B,824.0,60511.0,8.0,0.0,1.0,2350.0,100.0,
0,1234,-999999,0,0,IowaTask-v2.0,-mobile,jspsych-0.3a-mobile,1,List1,2024-04-29,0,0,projectseed-iowa-production,0.0-0.0-2.0-0.8,eng,6e64b31c6348ac9d094febdaa4fdb26e97e83af1,True,adolescent,2880.0,896,414,896,414,88db5135-3b75-423a-9a41-a83421c1644e,88db5135-3b75-423a-9a41-a83421c1644e,projectseed_production_april2024,6,,64485,34,html-button-response,"Mozilla/5.0 (iPhone; CPU iPhone OS 16_1 like Mac OS X) AppleWebKit/605.1.15 (KHTML, like Gecko) Version/16.1 Mobile/15E148 Safari/604.1",,1693,980,-200.0,100.0,50.0,50.0,61829.0,A,2880.0,64709.0,9.0,-300.0,0.0,2150.0,-200.0,
0,1234,-999999,0,0,IowaTask-v2.0,-mobile,jspsych-0.3a-mobile,1,List1,2024-04-29,0,0,projectseed-iowa-production,0.0-0.0-2.0-0.9,eng,6e64b31c6348ac9d094febdaa4fdb26e97e83af1,True,adolescent,617.0,896,414,896,414,88db5135-3b75-423a-9a41-a83421c1644e,88db5135-3b75-423a-9a41-a83421c1644e,projectseed_production_april2024,6,,67417,38,html-button-response,"Mozilla/5.0 (iPhone; CPU iPhone OS 16_1 like Mac OS X) AppleWebKit/605.1.15 (KHTML, like Gecko) Version/16.1 Mobile/15E148 Safari/604.1",,1693,980,100.0,100.0,50.0,50.0,67024.0,C,617.0,67641.0,10.0,0.0,2.0,2200.0,50.0,
0,1234,-999999,0,0,IowaTask-v2.0,-mobile,jspsych-0.3a-mobile,1,List1,2024-04-29,0,0,projectseed-iowa-production,0.0-0.0-2.0-0.10,eng,6e64b31c6348ac9d094febdaa4fdb26e97e83af1,True,adolescent,488.0,896,414,896,414,88db5135-3b75-423a-9a41-a83421c1644e,88db5135-3b75-423a-9a41-a83421c1644e,projectseed_production_april2024,6,,69217,42,html-button-response,"Mozilla/5.0 (iPhone; CPU iPhone OS 16_1 like Mac OS X) AppleWebKit/605.1.15 (KHTML, like Gecko) Version/16.1 Mobile/15E148 Safari/604.1",,1693,980,100.0,100.0,0.0,50.0,68953.0,C,488.0,69441.0,11.0,-50.0,2.0,2200.0,0.0,
0,1234,-999999,0,0,IowaTask-v2.0,-mobile,jspsych-0.3a-mobile,1,List1,2024-04-29,0,0,projectseed-iowa-production,0.0-0.0-2.0-0.11,eng,6e64b31c6348ac9d094febdaa4fdb26e97e83af1,True,adolescent,428.0,896,414,896,414,88db5135-3b75-423a-9a41-a83421c1644e,88db5135-3b75-423a-9a41-a83421c1644e,projectseed_production_april2024,6,,71958,46,html-button-response,"Mozilla/5.0 (iPhone; CPU iPhone OS 16_1 like Mac OS X) AppleWebKit/605.1.15 (KHTML, like Gecko) Version/16.1 Mobile/15E148 Safari/604.1",,1693,980,100.0,100.0,-25.0,50.0,71753.0,D,428.0,72181.0,12.0,0.0,3.0,2250.0,50.0,
0,1234,-999999,0,0,IowaTask-v2.0,-mobile,jspsych-0.3a-mobile,1,List1,2024-04-29,0,0,projectseed-iowa-production,0.0-0.0-2.0-0.12,eng,6e64b31c6348ac9d094febdaa4fdb26e97e83af1,True,adolescent,803.0,896,414,896,414,88db5135-3b75-423a-9a41-a83421c1644e,88db5135-3b75-423a-9a41-a83421c1644e,projectseed_production_april2024,6,,74074,50,html-button-response,"Mozilla/5.0 (iPhone; CPU iPhone OS 16_1 like Mac OS X) AppleWebKit/605.1.15 (KHTML, like Gecko) Version/16.1 Mobile/15E148 Safari/604.1",,1693,980,100.0,100.0,-25.0,50.0,73494.0,A,803.0,74297.0,13.0,0.0,0.0,2350.0,100.0,
0,1234,-999999,0,0,IowaTask-v2.0,-mobile,jspsych-0.3a-mobile,1,List1,2024-04-29,0,0,projectseed-iowa-production,0.0-0.0-2.0-0.13,eng,6e64b31c6348ac9d094febdaa4fdb26e97e83af1,True,adolescent,1639.0,896,414,896,414,88db5135-3b75-423a-9a41-a83421c1644e,88db5135-3b75-423a-9a41-a83421c1644e,projectseed_production_april2024,6,,77024,54,html-button-response,"Mozilla/5.0 (iPhone; CPU iPhone OS 16_1 like Mac OS X) AppleWebKit/605.1.15 (KHTML, like Gecko) Version/16.1 Mobile/15E148 Safari/604.1",,1693,980,-100.0,100.0,-25.0,50.0,75608.0,A,1639.0,77247.0,14.0,-200.0,0.0,2250.0,-100.0,
0,1234,-999999,0,0,IowaTask-v2.0,-mobile,jspsych-0.3a-mobile,1,List1,2024-04-29,0,0,projectseed-iowa-production,0.0-0.0-2.0-0.14,eng,6e64b31c6348ac9d094febdaa4fdb26e97e83af1,True,adolescent,513.0,896,414,896,414,88db5135-3b75-423a-9a41-a83421c1644e,88db5135-3b75-423a-9a41-a83421c1644e,projectseed_production_april2024,6,,79849,58,html-button-response,"Mozilla/5.0 (iPhone; CPU iPhone OS 16_1 like Mac OS X) AppleWebKit/605.1.15 (KHTML, like Gecko) Version/16.1 Mobile/15E148 Safari/604.1",,1693,980,100.0,100.0,-25.0,50.0,79559.0,B,513.0,80072.0,15.0,0.0,1.0,2350.0,100.0,
0,1234,-999999,0,0,IowaTask-v2.0,-mobile,jspsych-0.3a-mobile,1,List1,2024-04-29,0,0,projectseed-iowa-production,0.0-0.0-2.0-0.15,eng,6e64b31c6348ac9d094febdaa4fdb26e97e83af1,True,adolescent,1304.0,896,414,896,414,88db5135-3b75-423a-9a41-a83421c1644e,88db5135-3b75-423a-9a41-a83421c1644e,projectseed_production_april2024,6,,82464,62,html-button-response,"Mozilla/5.0 (iPhone; CPU iPhone OS 16_1 like Mac OS X) AppleWebKit/605.1.15 (KHTML, like Gecko) Version/16.1 Mobile/15E148 Safari/604.1",,1693,980,100.0,100.0,-25.0,50.0,81384.0,B,1304.0,82688.0,16.0,0.0,1.0,2450.0,100.0,
0,1234,-999999,0,0,IowaTask-v2.0,-mobile,jspsych-0.3a-mobile,1,List1,2024-04-29,0,0,projectseed-iowa-production,0.0-0.0-2.0-0.16,eng,6e64b31c6348ac9d094febdaa4fdb26e97e83af1,True,adolescent,945.0,896,414,896,414,88db5135-3b75-423a-9a41-a83421c1644e,88db5135-3b75-423a-9a41-a83421c1644e,projectseed_production_april2024,6,,84721,66,html-button-response,"Mozilla/5.0 (iPhone; CPU iPhone OS 16_1 like Mac OS X) AppleWebKit/605.1.15 (KHTML, like Gecko) Version/16.1 Mobile/15E148 Safari/604.1",,1693,980,100.0,100.0,-25.0,50.0,84000.00000000001,B,945.0,84945.00000000001,17.0,0.0,1.0,2550.0,100.0,
0,1234,-999999,0,0,IowaTask-v2.0,-mobile,jspsych-0.3a-mobile,1,List1,2024-04-29,0,0,projectseed-iowa-production,0.0-0.0-2.0-0.17,eng,6e64b31c6348ac9d094febdaa4fdb26e97e83af1,True,adolescent,1993.0,896,414,896,414,88db5135-3b75-423a-9a41-a83421c1644e,88db5135-3b75-423a-9a41-a83421c1644e,projectseed_production_april2024,6,,88023,70,html-button-response,"Mozilla/5.0 (iPhone; CPU iPhone OS 16_1 like Mac OS X) AppleWebKit/605.1.15 (KHTML, like Gecko) Version/16.1 Mobile/15E148 Safari/604.1",,1693,980,100.0,100.0,-25.0,50.0,86254.0,B,1993.0,88247.0,18.0,0.0,1.0,2650.0,100.0,
0,1234,-999999,0,0,IowaTask-v2.0,-mobile,jspsych-0.3a-mobile,1,List1,2024-04-29,0,0,projectseed-iowa-production,0.0-0.0-2.0-0.18,eng,6e64b31c6348ac9d094febdaa4fdb26e97e83af1,True,adolescent,2279.0,896,414,896,414,88db5135-3b75-423a-9a41-a83421c1644e,88db5135-3b75-423a-9a41-a83421c1644e,projectseed_production_april2024,6,,91614,74,html-button-response,"Mozilla/5.0 (iPhone; CPU iPhone OS 16_1 like Mac OS X) AppleWebKit/605.1.15 (KHTML, like Gecko) Version/16.1 Mobile/15E148 Safari/604.1",,1693,980,100.0,-1150.0,-25.0,50.0,89559.00000000001,B,2279.0,91838.00000000001,19.0,-1250.0,1.0,1500.0,-1150.0,
0,1234,-999999,0,0,IowaTask-v2.0,-mobile,jspsych-0.3a-mobile,1,List1,2024-04-29,0,0,projectseed-iowa-production,0.0-0.0-2.0-0.19,eng,6e64b31c6348ac9d094febdaa4fdb26e97e83af1,True,adolescent,1212.0,896,414,896,414,88db5135-3b75-423a-9a41-a83421c1644e,88db5135-3b75-423a-9a41-a83421c1644e,projectseed_production_april2024,6,,95138,78,html-button-response,"Mozilla/5.0 (iPhone; CPU iPhone OS 16_1 like Mac OS X) AppleWebKit/605.1.15 (KHTML, like Gecko) Version/16.1 Mobile/15E148 Safari/604.1",,1693,980,100.0,100.0,-25.0,50.0,94149.0,B,1212.0,95361.0,20.0,0.0,1.0,1600.0,100.0,
0,1234,-999999,0,0,IowaTask-v2.0,-mobile,jspsych-0.3a-mobile,1,List1,2024-04-29,0,0,projectseed-iowa-production,0.0-0.0-2.0-0.20,eng,6e64b31c6348ac9d094febdaa4fdb26e97e83af1,True,adolescent,649.0,896,414,896,414,88db5135-3b75-423a-9a41-a83421c1644e,88db5135-3b75-423a-9a41-a83421c1644e,projectseed_production_april2024,6,,97097,82,html-button-response,"Mozilla/5.0 (iPhone; CPU iPhone OS 16_1 like Mac OS X) AppleWebKit/605.1.15 (KHTML, like Gecko) Version/16.1 Mobile/15E148 Safari/604.1",,1693,980,100.0,100.0,-25.0,50.0,96672.0,C,649.0,97321.0,21.0,-75.0,2.0,1575.0,-25.0,
0,1234,-999999,0,0,IowaTask-v2.0,-mobile,jspsych-0.3a-mobile,1,List1,2024-04-29,0,0,projectseed-iowa-production,0.0-0.0-2.0-0.21,eng,6e64b31c6348ac9d094febdaa4fdb26e97e83af1,True,adolescent,448.0,896,414,896,414,88db5135-3b75-423a-9a41-a83421c1644e,88db5135-3b75-423a-9a41-a83421c1644e,projectseed_production_april2024,6,,99857,86,html-button-response,"Mozilla/5.0 (iPhone; CPU iPhone OS 16_1 like Mac OS X) AppleWebKit/605.1.15 (KHTML, like Gecko) Version/16.1 Mobile/15E148 Safari/604.1",,1693,980,100.0,100.0,-25.0,50.0,99632.0,B,448.0,100080.0,22.0,0.0,1.0,1675.0,100.0,
0,1234,-999999,0,0,IowaTask-v2.0,-mobile,jspsych-0.3a-mobile,1,List1,2024-04-29,0,0,projectseed-iowa-production,0.0-0.0-2.0-0.22,eng,6e64b31c6348ac9d094febdaa4fdb26e97e83af1,True,adolescent,488.0,896,414,896,414,88db5135-3b75-423a-9a41-a83421c1644e,88db5135-3b75-423a-9a41-a83421c1644e,projectseed_production_april2024,6,,101656,90,html-button-response,"Mozilla/5.0 (iPhone; CPU iPhone OS 16_1 like Mac OS X) AppleWebKit/605.1.15 (KHTML, like Gecko) Version/16.1 Mobile/15E148 Safari/604.1",,1693,980,100.0,100.0,-25.0,50.0,101392.0,B,488.0,101880.0,23.0,0.0,1.0,1775.0,100.0,
0,1234,-999999,0,0,IowaTask-v2.0,-mobile,jspsych-0.3a-mobile,1,List1,2024-04-29,0,0,projectseed-iowa-production,0.0-0.0-2.0-0.23,eng,6e64b31c6348ac9d094febdaa4fdb26e97e83af1,True,adolescent,1638.0,896,414,896,414,88db5135-3b75-423a-9a41-a83421c1644e,88db5135-3b75-423a-9a41-a83421c1644e,projectseed_production_april2024,6,,104606,94,html-button-response,"Mozilla/5.0 (iPhone; CPU iPhone OS 16_1 like Mac OS X) AppleWebKit/605.1.15 (KHTML, like Gecko) Version/16.1 Mobile/15E148 Safari/604.1",,1693,980,100.0,100.0,-25.0,50.0,103191.00000000001,B,1638.0,104829.00000000001,24.0,0.0,1.0,1875.0,100.0,
0,1234,-999999,0,0,IowaTask-v2.0,-mobile,jspsych-0.3a-mobile,1,List1,2024-04-29,0,0,projectseed-iowa-production,0.0-0.0-2.0-0.24,eng,6e64b31c6348ac9d094febdaa4fdb26e97e83af1,True,adolescent,804.0,896,414,896,414,88db5135-3b75-423a-9a41-a83421c1644e,88db5135-3b75-423a-9a41-a83421c1644e,projectseed_production_april2024,6,,106720,98,html-button-response,"Mozilla/5.0 (iPhone; CPU iPhone OS 16_1 like Mac OS X) AppleWebKit/605.1.15 (KHTML, like Gecko) Version/16.1 Mobile/15E148 Safari/604.1",,1693,980,100.0,100.0,-25.0,50.0,106140.0,B,804.0,106944.0,25.0,0.0,1.0,1975.0,100.0,
0,1234,-999999,0,0,IowaTask-v2.0,-mobile,jspsych-0.3a-mobile,1,List1,2024-04-29,0,0,projectseed-iowa-production,0.0-0.0-2.0-0.25,eng,6e64b31c6348ac9d094febdaa4fdb26e97e83af1,True,adolescent,1169.0,896,414,896,414,88db5135-3b75-423a-9a41-a83421c1644e,88db5135-3b75-423a-9a41-a83421c1644e,projectseed_production_april2024,6,,109209,102,html-button-response,"Mozilla/5.0 (iPhone; CPU iPhone OS 16_1 like Mac OS X) AppleWebKit/605.1.15 (KHTML, like Gecko) Version/16.1 Mobile/15E148 Safari/604.1",,1693,980,100.0,100.0,-25.0,50.0,108264.0,B,1169.0,109433.0,26.0,0.0,1.0,2075.0,100.0,
0,1234,-999999,0,0,IowaTask-v2.0,-mobile,jspsych-0.3a-mobile,1,List1,2024-04-29,0,0,projectseed-iowa-production,0.0-0.0-2.0-0.26,eng,6e64b31c6348ac9d094febdaa4fdb26e97e83af1,True,adolescent,513.0,896,414,896,414,88db5135-3b75-423a-9a41-a83421c1644e,88db5135-3b75-423a-9a41-a83421c1644e,projectseed_production_april2024,6,,111043,106,html-button-response,"Mozilla/5.0 (iPhone; CPU iPhone OS 16_1 like Mac OS X) AppleWebKit/605.1.15 (KHTML, like Gecko) Version/16.1 Mobile/15E148 Safari/604.1",,1693,980,100.0,-1150.0,-25.0,50.0,110753.0,B,513.0,111266.0,27.0,-1250.0,1.0,925.0,-1150.0,
0,1234,-999999,0,0,IowaTask-v2.0,-mobile,jspsych-0.3a-mobile,1,List1,2024-04-29,0,0,projectseed-iowa-production,0.0-0.0-2.0-0.27,eng,6e64b31c6348ac9d094febdaa4fdb26e97e83af1,True,adolescent,2642.0,896,414,896,414,88db5135-3b75-423a-9a41-a83421c1644e,88db5135-3b75-423a-9a41-a83421c1644e,projectseed_production_april2024,6,,115996,110,html-button-response,"Mozilla/5.0 (iPhone; CPU iPhone OS 16_1 like Mac OS X) AppleWebKit/605.1.15 (KHTML, like Gecko) Version/16.1 Mobile/15E148 Safari/604.1",,1693,980,100.0,100.0,-25.0,50.0,113578.0,B,2642.0,116220.0,28.0,0.0,1.0,1025.0,100.0,
0,1234,-999999,0,0,IowaTask-v2.0,-mobile,jspsych-0.3a-mobile,1,List1,2024-04-29,0,0,projectseed-iowa-production,0.0-0.0-2.0-0.28,eng,6e64b31c6348ac9d094febdaa4fdb26e97e83af1,True,adolescent,445.0,896,414,896,414,88db5135-3b75-423a-9a41-a83421c1644e,88db5135-3b75-423a-9a41-a83421c1644e,projectseed_production_april2024,6,,117753,114,html-button-response,"Mozilla/5.0 (iPhone; CPU iPhone OS 16_1 like Mac OS X) AppleWebKit/605.1.15 (KHTML, like Gecko) Version/16.1 Mobile/15E148 Safari/604.1",,1693,980,100.0,100.0,-25.0,50.0,117532.0,B,445.0,117977.0,29.0,0.0,1.0,1125.0,100.0,
0,1234,-999999,0,0,IowaTask-v2.0,-mobile,jspsych-0.3a-mobile,1,List1,2024-04-29,0,0,projectseed-iowa-production,0.0-0.0-2.0-0.29,eng,6e64b31c6348ac9d094febdaa4fdb26e97e83af1,True,adolescent,463.0,896,414,896,414,88db5135-3b75-423a-9a41-a83421c1644e,88db5135-3b75-423a-9a41-a83421c1644e,projectseed_production_april2024,6,,119528,118,html-button-response,"Mozilla/5.0 (iPhone; CPU iPhone OS 16_1 like Mac OS X) AppleWebKit/605.1.15 (KHTML, like Gecko) Version/16.1 Mobile/15E148 Safari/604.1",,1693,980,100.0,100.0,-25.0,50.0,119289.00000000001,B,463.0,119752.00000000001,30.0,0.0,1.0,1225.0,100.0,
0,1234,-999999,0,0,IowaTask-v2.0,-mobile,jspsych-0.3a-mobile,1,List1,2024-04-29,0,0,projectseed-iowa-production,0.0-0.0-2.0-0.30,eng,6e64b31c6348ac9d094febdaa4fdb26e97e83af1,True,adolescent,1180.0,896,414,896,414,88db5135-3b75-423a-9a41-a83421c1644e,88db5135-3b75-423a-9a41-a83421c1644e,projectseed_production_april2024,6,,122019,122,html-button-response,"Mozilla/5.0 (iPhone; CPU iPhone OS 16_1 like Mac OS X) AppleWebKit/605.1.15 (KHTML, like Gecko) Version/16.1 Mobile/15E148 Safari/604.1",,1693,980,100.0,100.0,-25.0,50.0,121063.00000000001,A,1180.0,122243.00000000001,31.0,0.0,0.0,1325.0,100.0,
0,1234,-999999,0,0,IowaTask-v2.0,-mobile,jspsych-0.3a-mobile,1,List1,2024-04-29,0,0,projectseed-iowa-production,0.0-0.0-2.0-0.31,eng,6e64b31c6348ac9d094febdaa4fdb26e97e83af1,True,adolescent,556.0,896,414,896,414,88db5135-3b75-423a-9a41-a83421c1644e,88db5135-3b75-423a-9a41-a83421c1644e,projectseed_production_april2024,6,,123886,126,html-button-response,"Mozilla/5.0 (iPhone; CPU iPhone OS 16_1 like Mac OS X) AppleWebKit/605.1.15 (KHTML, like Gecko) Version/16.1 Mobile/15E148 Safari/604.1",,1693,980,-150.0,100.0,-25.0,50.0,123554.0,A,556.0,124110.0,32.0,-250.0,0.0,1175.0,-150.0,
0,1234,-999999,0,0,IowaTask-v2.0,-mobile,jspsych-0.3a-mobile,1,List1,2024-04-29,0,0,projectseed-iowa-production,0.0-0.0-2.0-0.32,eng,6e64b31c6348ac9d094febdaa4fdb26e97e83af1,True,adolescent,1595.0,896,414,896,414,88db5135-3b75-423a-9a41-a83421c1644e,88db5135-3b75-423a-9a41-a83421c1644e,projectseed_production_april2024,6,,127791,130,html-button-response,"Mozilla/5.0 (iPhone; CPU iPhone OS 16_1 like Mac OS X) AppleWebKit/605.1.15 (KHTML, like Gecko) Version/16.1 Mobile/15E148 Safari/604.1",,1693,980,100.0,100.0,-25.0,50.0,126420.00000000001,A,1595.0,128015.00000000001,33.0,0.0,0.0,1275.0,100.0,
0,1234,-999999,0,0,IowaTask-v2.0,-mobile,jspsych-0.3a-mobile,1,List1,2024-04-29,0,0,projectseed-iowa-production,0.0-0.0-2.0-0.33,eng,6e64b31c6348ac9d094febdaa4fdb26e97e83af1,True,adolescent,556.0,896,414,896,414,88db5135-3b75-423a-9a41-a83421c1644e,88db5135-3b75-423a-9a41-a83421c1644e,projectseed_production_april2024,6,,129658,134,html-button-response,"Mozilla/5.0 (iPhone; CPU iPhone OS 16_1 like Mac OS X) AppleWebKit/605.1.15 (KHTML, like Gecko) Version/16.1 Mobile/15E148 Safari/604.1",,1693,980,100.0,100.0,-25.0,50.0,129325.0,A,556.0,129881.0,34.0,0.0,0.0,1375.0,100.0,
0,1234,-999999,0,0,IowaTask-v2.0,-mobile,jspsych-0.3a-mobile,1,List1,2024-04-29,0,0,projectseed-iowa-production,0.0-0.0-2.0-0.34,eng,6e64b31c6348ac9d094febdaa4fdb26e97e83af1,True,adolescent,727.0,896,414,896,414,88db5135-3b75-423a-9a41-a83421c1644e,88db5135-3b75-423a-9a41-a83421c1644e,projectseed_production_april2024,6,,131695,138,html-button-response,"Mozilla/5.0 (iPhone; CPU iPhone OS 16_1 like Mac OS X) AppleWebKit/605.1.15 (KHTML, like Gecko) Version/16.1 Mobile/15E148 Safari/604.1",,1693,980,-50.0,100.0,-25.0,50.0,131192.0,A,727.0,131919.0,35.0,-150.0,0.0,1325.0,-50.0,
0,1234,-999999,0,0,IowaTask-v2.0,-mobile,jspsych-0.3a-mobile,1,List1,2024-04-29,0,0,projectseed-iowa-production,0.0-0.0-2.0-0.35,eng,6e64b31c6348ac9d094febdaa4fdb26e97e83af1,True,adolescent,937.0,896,414,896,414,88db5135-3b75-423a-9a41-a83421c1644e,88db5135-3b75-423a-9a41-a83421c1644e,projectseed_production_april2024,6,,134946,142,html-button-response,"Mozilla/5.0 (iPhone; CPU iPhone OS 16_1 like Mac OS X) AppleWebKit/605.1.15 (KHTML, like Gecko) Version/16.1 Mobile/15E148 Safari/604.1",,1693,980,-200.0,100.0,-25.0,50.0,134233.00000000003,D,937.0,135170.00000000003,36.0,0.0,3.0,1375.0,50.0,
0,1234,-999999,0,0,IowaTask-v2.0,-mobile,jspsych-0.3a-mobile,1,List1,2024-04-29,0,0,projectseed-iowa-production,0.0-0.0-2.0-0.36,eng,6e64b31c6348ac9d094febdaa4fdb26e97e83af1,True,adolescent,527.0,896,414,896,414,88db5135-3b75-423a-9a41-a83421c1644e,88db5135-3b75-423a-9a41-a83421c1644e,projectseed_production_april2024,6,,136787,146,html-button-response,"Mozilla/5.0 (iPhone; CPU iPhone OS 16_1 like Mac OS X) AppleWebKit/605.1.15 (KHTML, like Gecko) Version/16.1 Mobile/15E148 Safari/604.1",,1693,980,-200.0,100.0,-25.0,-200.0,136484.0,C,527.0,137011.0,37.0,-75.0,2.0,1350.0,-25.0,
0,1234,-999999,0,0,IowaTask-v2.0,-mobile,jspsych-0.3a-mobile,1,List1,2024-04-29,0,0,projectseed-iowa-production,0.0-0.0-2.0-0.37,eng,6e64b31c6348ac9d094febdaa4fdb26e97e83af1,True,adolescent,830.0,896,414,896,414,88db5135-3b75-423a-9a41-a83421c1644e,88db5135-3b75-423a-9a41-a83421c1644e,projectseed_production_april2024,6,,139930,150,html-button-response,"Mozilla/5.0 (iPhone; CPU iPhone OS 16_1 like Mac OS X) AppleWebKit/605.1.15 (KHTML, like Gecko) Version/16.1 Mobile/15E148 Safari/604.1",,1693,980,-200.0,100.0,50.0,-200.0,139324.0,C,830.0,140154.0,38.0,0.0,2.0,1400.0,50.0,
0,1234,-999999,0,0,IowaTask-v2.0,-mobile,jspsych-0.3a-mobile,1,List1,2024-04-29,0,0,projectseed-iowa-production,0.0-0.0-2.0-0.38,eng,6e64b31c6348ac9d094febdaa4fdb26e97e83af1,True,adolescent,537.0,896,414,896,414,88db5135-3b75-423a-9a41-a83421c1644e,88db5135-3b75-423a-9a41-a83421c1644e,projectseed_production_april2024,6,,141779,154,html-button-response,"Mozilla/5.0 (iPhone; CPU iPhone OS 16_1 like Mac OS X) AppleWebKit/605.1.15 (KHTML, like Gecko) Version/16.1 Mobile/15E148 Safari/604.1",,1693,980,-200.0,100.0,50.0,-200.0,141466.0,B,537.0,142003.0,39.0,0.0,1.0,1500.0,100.0,
0,1234,-999999,0,0,IowaTask-v2.0,-mobile,jspsych-0.3a-mobile,1,List1,2024-04-29,0,0,projectseed-iowa-production,0.0-0.0-2.0-0.39,eng,6e64b31c6348ac9d094febdaa4fdb26e97e83af1,True,adolescent,547.0,896,414,896,414,88db5135-3b75-423a-9a41-a83421c1644e,88db5135-3b75-423a-9a41-a83421c1644e,projectseed_production_april2024,6,,143637,158,html-button-response,"Mozilla/5.0 (iPhone; CPU iPhone OS 16_1 like Mac OS X) AppleWebKit/605.1.15 (KHTML, like Gecko) Version/16.1 Mobile/15E148 Safari/604.1",,1693,980,-200.0,-1150.0,50.0,-200.0,143314.0,B,547.0,143861.0,40.0,-1250.0,1.0,350.0,-1150.0,
0,1234,-999999,0,0,IowaTask-v2.0,-mobile,jspsych-0.3a-mobile,1,List1,2024-04-29,0,0,projectseed-iowa-production,0.0-0.0-2.0-0.40,eng,6e64b31c6348ac9d094febdaa4fdb26e97e83af1,True,adolescent,797.0,896,414,896,414,88db5135-3b75-423a-9a41-a83421c1644e,88db5135-3b75-423a-9a41-a83421c1644e,projectseed_production_april2024,6,,146746,162,html-button-response,"Mozilla/5.0 (iPhone; CPU iPhone OS 16_1 like Mac OS X) AppleWebKit/605.1.15 (KHTML, like Gecko) Version/16.1 Mobile/15E148 Safari/604.1",,1693,980,-200.0,100.0,50.0,-200.0,146173.0,A,797.0,146970.0,41.0,-300.0,0.0,150.0,-200.0,
0,1234,-999999,0,0,IowaTask-v2.0,-mobile,jspsych-0.3a-mobile,1,List1,2024-04-29,0,0,projectseed-iowa-production,0.0-0.0-2.0-0.41,eng,6e64b31c6348ac9d094febdaa4fdb26e97e83af1,True,adolescent,542.0,896,414,896,414,88db5135-3b75-423a-9a41-a83421c1644e,88db5135-3b75-423a-9a41-a83421c1644e,projectseed_production_april2024,6,,149603,166,html-button-response,"Mozilla/5.0 (iPhone; CPU iPhone OS 16_1 like Mac OS X) AppleWebKit/605.1.15 (KHTML, like Gecko) Version/16.1 Mobile/15E148 Safari/604.1",,1693,980,100.0,100.0,50.0,-200.0,149285.0,C,542.0,149827.0,42.0,0.0,2.0,200.0,50.0,
0,1234,-999999,0,0,IowaTask-v2.0,-mobile,jspsych-0.3a-mobile,1,List1,2024-04-29,0,0,projectseed-iowa-production,0.0-0.0-2.0-0.42,eng,6e64b31c6348ac9d094febdaa4fdb26e97e83af1,True,adolescent,530.0,896,414,896,414,88db5135-3b75-423a-9a41-a83421c1644e,88db5135-3b75-423a-9a41-a83421c1644e,projectseed_production_april2024,6,,151445,170,html-button-response,"Mozilla/5.0 (iPhone; CPU iPhone OS 16_1 like Mac OS X) AppleWebKit/605.1.15 (KHTML, like Gecko) Version/16.1 Mobile/15E148 Safari/604.1",,1693,980,100.0,100.0,25.0,-200.0,151139.0,C,530.0,151669.0,43.0,-25.0,2.0,225.0,25.0,
0,1234,-999999,0,0,IowaTask-v2.0,-mobile,jspsych-0.3a-mobile,1,List1,2024-04-29,0,0,projectseed-iowa-production,0.0-0.0-2.0-0.43,eng,6e64b31c6348ac9d094febdaa4fdb26e97e83af1,True,adolescent,576.0,896,414,896,414,88db5135-3b75-423a-9a41-a83421c1644e,88db5135-3b75-423a-9a41-a83421c1644e,projectseed_production_april2024,6,,154332,174,html-button-response,"Mozilla/5.0 (iPhone; CPU iPhone OS 16_1 like Mac OS X) AppleWebKit/605.1.15 (KHTML, like Gecko) Version/16.1 Mobile/15E148 Safari/604.1",,1693,980,100.0,100.0,25.0,-200.0,153985.0,A,576.0,154561.0,44.0,0.0,0.0,325.0,100.0,
0,1234,-999999,0,0,IowaTask-v2.0,-mobile,jspsych-0.3a-mobile,1,List1,2024-04-29,0,0,projectseed-iowa-production,0.0-0.0-2.0-0.44,eng,6e64b31c6348ac9d094febdaa4fdb26e97e83af1,True,adolescent,684.0,896,414,896,414,88db5135-3b75-423a-9a41-a83421c1644e,88db5135-3b75-423a-9a41-a83421c1644e,projectseed_production_april2024,6,,156336,178,html-button-response,"Mozilla/5.0 (iPhone; CPU iPhone OS 16_1 like Mac OS X) AppleWebKit/605.1.15 (KHTML, like Gecko) Version/16.1 Mobile/15E148 Safari/604.1",,1693,980,100.0,100.0,25.0,-200.0,155876.0,A,684.0,156560.0,45.0,0.0,0.0,425.0,100.0,
0,1234,-999999,0,0,IowaTask-v2.0,-mobile,jspsych-0.3a-mobile,1,List1,2024-04-29,0,0,projectseed-iowa-production,0.0-0.0-2.0-0.45,eng,6e64b31c6348ac9d094febdaa4fdb26e97e83af1,True,adolescent,1891.0,896,414,896,414,88db5135-3b75-423a-9a41-a83421c1644e,88db5135-3b75-423a-9a41-a83421c1644e,projectseed_production_april2024,6,,159540,182,html-button-response,"Mozilla/5.0 (iPhone; CPU iPhone OS 16_1 like Mac OS X) AppleWebKit/605.1.15 (KHTML, like Gecko) Version/16.1 Mobile/15E148 Safari/604.1",,1693,980,100.0,100.0,25.0,-200.0,157873.0,B,1891.0,159764.0,46.0,0.0,1.0,525.0,100.0,
0,1234,-999999,0,0,IowaTask-v2.0,-mobile,jspsych-0.3a-mobile,1,List1,2024-04-29,0,0,projectseed-iowa-production,0.0-0.0-2.0-0.46,eng,6e64b31c6348ac9d094febdaa4fdb26e97e83af1,True,adolescent,555.0,896,414,896,414,88db5135-3b75-423a-9a41-a83421c1644e,88db5135-3b75-423a-9a41-a83421c1644e,projectseed_production_april2024,6,,161408,186,html-button-response,"Mozilla/5.0 (iPhone; CPU iPhone OS 16_1 like Mac OS X) AppleWebKit/605.1.15 (KHTML, like Gecko) Version/16.1 Mobile/15E148 Safari/604.1",,1693,980,100.0,100.0,25.0,-200.0,161077.0,A,555.0,161632.0,47.0,0.0,0.0,625.0,100.0,
0,1234,-999999,0,0,IowaTask-v2.0,-mobile,jspsych-0.3a-mobile,1,List1,2024-04-29,0,0,projectseed-iowa-production,0.0-0.0-2.0-0.47,eng,6e64b31c6348ac9d094febdaa4fdb26e97e83af1,True,adolescent,534.0,896,414,896,414,88db5135-3b75-423a-9a41-a83421c1644e,88db5135-3b75-423a-9a41-a83421c1644e,projectseed_production_april2024,6,,163253,190,html-button-response,"Mozilla/5.0 (iPhone; CPU iPhone OS 16_1 like Mac OS X) AppleWebKit/605.1.15 (KHTML, like Gecko) Version/16.1 Mobile/15E148 Safari/604.1",,1693,980,-250.0,100.0,25.0,-200.0,162944.0,D,534.0,163478.0,48.0,-250.0,3.0,425.0,-200.0,
0,1234,-999999,0,0,IowaTask-v2.0,-mobile,jspsych-0.3a-mobile,1,List1,2024-04-29,0,0,projectseed-iowa-production,0.0-0.0-2.0-0.48,eng,6e64b31c6348ac9d094febdaa4fdb26e97e83af1,True,adolescent,512.0,896,414,896,414,88db5135-3b75-423a-9a41-a83421c1644e,88db5135-3b75-423a-9a41-a83421c1644e,projectseed_production_april2024,6,,166077,194,html-button-response,"Mozilla/5.0 (iPhone; CPU iPhone OS 16_1 like Mac OS X) AppleWebKit/605.1.15 (KHTML, like Gecko) Version/16.1 Mobile/15E148 Safari/604.1",,1693,980,-250.0,100.0,25.0,50.0,165789.00000000003,B,512.0,166301.00000000003,49.0,0.0,1.0,525.0,100.0,
0,1234,-999999,0,0,IowaTask-v2.0,-mobile,jspsych-0.3a-mobile,1,List1,2024-04-29,0,0,projectseed-iowa-production,0.0-0.0-2.0-0.49,eng,6e64b31c6348ac9d094febdaa4fdb26e97e83af1,True,adolescent,707.0,896,414,896,414,88db5135-3b75-423a-9a41-a83421c1644e,88db5135-3b75-423a-9a41-a83421c1644e,projectseed_production_april2024,6,,168095,198,html-button-response,"Mozilla/5.0 (iPhone; CPU iPhone OS 16_1 like Mac OS X) AppleWebKit/605.1.15 (KHTML, like Gecko) Version/16.1 Mobile/15E148 Safari/604.1",,1693,980,-250.0,100.0,25.0,50.0,167612.00000000003,B,707.0,168319.00000000003,50.0,0.0,1.0,625.0,100.0,
0,1234,-999999,0,0,IowaTask-v2.0,-mobile,jspsych-0.3a-mobile,1,List1,2024-04-29,0,0,projectseed-iowa-production,0.0-0.0-2.0-0.50,eng,6e64b31c6348ac9d094febdaa4fdb26e97e83af1,True,adolescent,808.0,896,414,896,414,88db5135-3b75-423a-9a41-a83421c1644e,88db5135-3b75-423a-9a41-a83421c1644e,projectseed_production_april2024,6,,170215,202,html-button-response,"Mozilla/5.0 (iPhone; CPU iPhone OS 16_1 like Mac OS X) AppleWebKit/605.1.15 (KHTML, like Gecko) Version/16.1 Mobile/15E148 Safari/604.1",,1693,980,-250.0,100.0,25.0,50.0,169631.0,A,808.0,170439.0,51.0,-350.0,0.0,375.0,-250.0,
0,1234,-999999,0,0,IowaTask-v2.0,-mobile,jspsych-0.3a-mobile,1,List1,2024-04-29,0,0,projectseed-iowa-production,0.0-0.0-2.0-0.51,eng,6e64b31c6348ac9d094febdaa4fdb26e97e83af1,True,adolescent,950.0,896,414,896,414,88db5135-3b75-423a-9a41-a83421c1644e,88db5135-3b75-423a-9a41-a83421c1644e,projectseed_production_april2024,6,,173477,206,html-button-response,"Mozilla/5.0 (iPhone; CPU iPhone OS 16_1 like Mac OS X) AppleWebKit/605.1.15 (KHTML, like Gecko) Version/16.1 Mobile/15E148 Safari/604.1",,1693,980,-100.0,100.0,25.0,50.0,172751.0,B,950.0,173701.0,52.0,0.0,1.0,475.0,100.0,
0,1234,-999999,0,0,IowaTask-v2.0,-mobile,jspsych-0.3a-mobile,1,List1,2024-04-29,0,0,projectseed-iowa-production,0.0-0.0-2.0-0.52,eng,6e64b31c6348ac9d094febdaa4fdb26e97e83af1,True,adolescent,570.0,896,414,896,414,88db5135-3b75-423a-9a41-a83421c1644e,88db5135-3b75-423a-9a41-a83421c1644e,projectseed_production_april2024,6,,175358,210,html-button-response,"Mozilla/5.0 (iPhone; CPU iPhone OS 16_1 like Mac OS X) AppleWebKit/605.1.15 (KHTML, like Gecko) Version/16.1 Mobile/15E148 Safari/604.1",,1693,980,-100.0,100.0,25.0,50.0,175013.0,B,570.0,175583.0,53.0,0.0,1.0,575.0,100.0,
0,1234,-999999,0,0,IowaTask-v2.0,-mobile,jspsych-0.3a-mobile,1,List1,2024-04-29,0,0,projectseed-iowa-production,0.0-0.0-2.0-0.53,eng,6e64b31c6348ac9d094febdaa4fdb26e97e83af1,True,adolescent,473.0,896,414,896,414,88db5135-3b75-423a-9a41-a83421c1644e,88db5135-3b75-423a-9a41-a83421c1644e,projectseed_production_april2024,6,,177144,214,html-button-response,"Mozilla/5.0 (iPhone; CPU iPhone OS 16_1 like Mac OS X) AppleWebKit/605.1.15 (KHTML, like Gecko) Version/16.1 Mobile/15E148 Safari/604.1",,1693,980,-100.0,100.0,25.0,50.0,176896.0,B,473.0,177369.0,54.0,0.0,1.0,675.0,100.0,
0,1234,-999999,0,0,IowaTask-v2.0,-mobile,jspsych-0.3a-mobile,1,List1,2024-04-29,0,0,projectseed-iowa-production,0.0-0.0-2.0-0.54,eng,6e64b31c6348ac9d094febdaa4fdb26e97e83af1,True,adolescent,527.0,896,414,896,414,88db5135-3b75-423a-9a41-a83421c1644e,88db5135-3b75-423a-9a41-a83421c1644e,projectseed_production_april2024,6,,178986,218,html-button-response,"Mozilla/5.0 (iPhone; CPU iPhone OS 16_1 like Mac OS X) AppleWebKit/605.1.15 (KHTML, like Gecko) Version/16.1 Mobile/15E148 Safari/604.1",,1693,980,-100.0,100.0,25.0,50.0,178683.0,A,527.0,179210.0,55.0,-200.0,0.0,575.0,-100.0,
0,1234,-999999,0,0,IowaTask-v2.0,-mobile,jspsych-0.3a-mobile,1,List1,2024-04-29,0,0,projectseed-iowa-production,0.0-0.0-2.0-0.55,eng,6e64b31c6348ac9d094febdaa4fdb26e97e83af1,True,adolescent,487.0,896,414,896,414,88db5135-3b75-423a-9a41-a83421c1644e,88db5135-3b75-423a-9a41-a83421c1644e,projectseed_production_april2024,6,,181786,222,html-button-response,"Mozilla/5.0 (iPhone; CPU iPhone OS 16_1 like Mac OS X) AppleWebKit/605.1.15 (KHTML, like Gecko) Version/16.1 Mobile/15E148 Safari/604.1",,1693,980,100.0,100.0,25.0,50.0,181523.0,C,487.0,182010.0,56.0,-25.0,2.0,600.0,25.0,
0,1234,-999999,0,0,IowaTask-v2.0,-mobile,jspsych-0.3a-mobile,1,List1,2024-04-29,0,0,projectseed-iowa-production,0.0-0.0-2.0-0.56,eng,6e64b31c6348ac9d094febdaa4fdb26e97e83af1,True,adolescent,636.0,896,414,896,414,88db5135-3b75-423a-9a41-a83421c1644e,88db5135-3b75-423a-9a41-a83421c1644e,projectseed_production_april2024,6,,184734,226,html-button-response,"Mozilla/5.0 (iPhone; CPU iPhone OS 16_1 like Mac OS X) AppleWebKit/605.1.15 (KHTML, like Gecko) Version/16.1 Mobile/15E148 Safari/604.1",,1693,980,100.0,100.0,50.0,50.0,184323.0,C,636.0,184959.0,57.0,0.0,2.0,650.0,50.0,
0,1234,-999999,0,0,IowaTask-v2.0,-mobile,jspsych-0.3a-mobile,1,List1,2024-04-29,0,0,projectseed-iowa-production,0.0-0.0-2.0-0.57,eng,6e64b31c6348ac9d094febdaa4fdb26e97e83af1,True,adolescent,901.0,896,414,896,414,88db5135-3b75-423a-9a41-a83421c1644e,88db5135-3b75-423a-9a41-a83421c1644e,projectseed_production_april2024,6,,186951,230,html-button-response,"Mozilla/5.0 (iPhone; CPU iPhone OS 16_1 like Mac OS X) AppleWebKit/605.1.15 (KHTML, like Gecko) Version/16.1 Mobile/15E148 Safari/604.1",,1693,980,100.0,100.0,50.0,50.0,186275.00000000003,D,901.0,187176.00000000003,58.0,0.0,3.0,700.0,50.0,
0,1234,-999999,0,0,IowaTask-v2.0,-mobile,jspsych-0.3a-mobile,1,List1,2024-04-29,0,0,projectseed-iowa-production,0.0-0.0-2.0-0.58,eng,6e64b31c6348ac9d094febdaa4fdb26e97e83af1,True,adolescent,730.0,896,414,896,414,88db5135-3b75-423a-9a41-a83421c1644e,88db5135-3b75-423a-9a41-a83421c1644e,projectseed_production_april2024,6,,188993,234,html-button-response,"Mozilla/5.0 (iPhone; CPU iPhone OS 16_1 like Mac OS X) AppleWebKit/605.1.15 (KHTML, like Gecko) Version/16.1 Mobile/15E148 Safari/604.1",,1693,980,100.0,100.0,50.0,50.0,188488.00000000003,A,730.0,189218.00000000003,59.0,0.0,0.0,800.0,100.0,
0,1234,-999999,0,0,IowaTask-v2.0,-mobile,jspsych-0.3a-mobile,1,List1,2024-04-29,0,0,projectseed-iowa-production,0.0-0.0-2.0-0.59,eng,6e64b31c6348ac9d094febdaa4fdb26e97e83af1,True,adolescent,738.0,896,414,896,414,88db5135-3b75-423a-9a41-a83421c1644e,88db5135-3b75-423a-9a41-a83421c1644e,projectseed_production_april2024,6,,191043,238,html-button-response,"Mozilla/5.0 (iPhone; CPU iPhone OS 16_1 like Mac OS X) AppleWebKit/605.1.15 (KHTML, like Gecko) Version/16.1 Mobile/15E148 Safari/604.1",,1693,980,-150.0,100.0,50.0,50.0,190529.0,B,738.0,191267.0,60.0,0.0,1.0,900.0,100.0,
0,1234,-999999,0,0,IowaTask-v2.0,-mobile,jspsych-0.3a-mobile,1,List1,2024-04-29,0,0,projectseed-iowa-production,0.0-0.0-2.0-0.60,eng,6e64b31c6348ac9d094febdaa4fdb26e97e83af1,True,adolescent,612.0,896,414,896,414,88db5135-3b75-423a-9a41-a83421c1644e,88db5135-3b75-423a-9a41-a83421c1644e,projectseed_production_april2024,6,,192965,242,html-button-response,"Mozilla/5.0 (iPhone; CPU iPhone OS 16_1 like Mac OS X) AppleWebKit/605.1.15 (KHTML, like Gecko) Version/16.1 Mobile/15E148 Safari/604.1",,1693,980,-150.0,100.0,50.0,50.0,192578.0,B,612.0,193190.0,61.0,0.0,1.0,1000.0,100.0,
0,1234,-999999,0,0,IowaTask-v2.0,-mobile,jspsych-0.3a-mobile,1,List1,2024-04-29,0,0,projectseed-iowa-production,0.0-0.0-2.0-0.61,eng,6e64b31c6348ac9d094febdaa4fdb26e97e83af1,True,adolescent,633.0,896,414,896,414,88db5135-3b75-423a-9a41-a83421c1644e,88db5135-3b75-423a-9a41-a83421c1644e,projectseed_production_april2024,6,,194909,246,html-button-response,"Mozilla/5.0 (iPhone; CPU iPhone OS 16_1 like Mac OS X) AppleWebKit/605.1.15 (KHTML, like Gecko) Version/16.1 Mobile/15E148 Safari/604.1",,1693,980,-150.0,100.0,50.0,50.0,194501.0,B,633.0,195134.0,62.0,0.0,1.0,1100.0,100.0,
0,1234,-999999,0,0,IowaTask-v2.0,-mobile,jspsych-0.3a-mobile,1,List1,2024-04-29,0,0,projectseed-iowa-production,0.0-0.0-2.0-0.62,eng,6e64b31c6348ac9d094febdaa4fdb26e97e83af1,True,adolescent,626.0,896,414,896,414,88db5135-3b75-423a-9a41-a83421c1644e,88db5135-3b75-423a-9a41-a83421c1644e,projectseed_production_april2024,6,,196847,250,html-button-response,"Mozilla/5.0 (iPhone; CPU iPhone OS 16_1 like Mac OS X) AppleWebKit/605.1.15 (KHTML, like Gecko) Version/16.1 Mobile/15E148 Safari/604.1",,1693,980,-150.0,100.0,50.0,50.0,196445.0,C,626.0,197071.0,63.0,0.0,2.0,1150.0,50.0,
0,1234,-999999,0,0,IowaTask-v2.0,-mobile,jspsych-0.3a-mobile,1,List1,2024-04-29,0,0,projectseed-iowa-production,0.0-0.0-2.0-0.63,eng,6e64b31c6348ac9d094febdaa4fdb26e97e83af1,True,adolescent,1720.0,896,414,896,414,88db5135-3b75-423a-9a41-a83421c1644e,88db5135-3b75-423a-9a41-a83421c1644e,projectseed_production_april2024,6,,199884,254,html-button-response,"Mozilla/5.0 (iPhone; CPU iPhone OS 16_1 like Mac OS X) AppleWebKit/605.1.15 (KHTML, like Gecko) Version/16.1 Mobile/15E148 Safari/604.1",,1693,980,-150.0,100.0,50.0,50.0,198389.0,C,1720.0,200109.0,64.0,0.0,2.0,1200.0,50.0,
0,1234,-999999,0,0,IowaTask-v2.0,-mobile,jspsych-0.3a-mobile,1,List1,2024-04-29,0,0,projectseed-iowa-production,0.0-0.0-2.0-0.64,eng,6e64b31c6348ac9d094febdaa4fdb26e97e83af1,True,adolescent,621.0,896,414,896,414,88db5135-3b75-423a-9a41-a83421c1644e,88db5135-3b75-423a-9a41-a83421c1644e,projectseed_production_april2024,6,,201817,258,html-button-response,"Mozilla/5.0 (iPhone; CPU iPhone OS 16_1 like Mac OS X) AppleWebKit/605.1.15 (KHTML, like Gecko) Version/16.1 Mobile/15E148 Safari/604.1",,1693,980,-150.0,100.0,-25.0,50.0,201421.0,D,621.0,202042.0,65.0,0.0,3.0,1250.0,50.0,
0,1234,-999999,0,0,IowaTask-v2.0,-mobile,jspsych-0.3a-mobile,1,List1,2024-04-29,0,0,projectseed-iowa-production,0.0-0.0-2.0-0.65,eng,6e64b31c6348ac9d094febdaa4fdb26e97e83af1,True,adolescent,687.0,896,414,896,414,88db5135-3b75-423a-9a41-a83421c1644e,88db5135-3b75-423a-9a41-a83421c1644e,projectseed_production_april2024,6,,203817,262,html-button-response,"Mozilla/5.0 (iPhone; CPU iPhone OS 16_1 like Mac OS X) AppleWebKit/605.1.15 (KHTML, like Gecko) Version/16.1 Mobile/15E148 Safari/604.1",,1693,980,-150.0,100.0,-25.0,50.0,203355.0,D,687.0,204042.0,66.0,0.0,3.0,1300.0,50.0,
0,1234,-999999,0,0,IowaTask-v2.0,-mobile,jspsych-0.3a-mobile,1,List1,2024-04-29,0,0,projectseed-iowa-production,0.0-0.0-2.0-0.66,eng,6e64b31c6348ac9d094febdaa4fdb26e97e83af1,True,adolescent,1096.0,896,414,896,414,88db5135-3b75-423a-9a41-a83421c1644e,88db5135-3b75-423a-9a41-a83421c1644e,projectseed_production_april2024,6,,206226,266,html-button-response,"Mozilla/5.0 (iPhone; CPU iPhone OS 16_1 like Mac OS X) AppleWebKit/605.1.15 (KHTML, like Gecko) Version/16.1 Mobile/15E148 Safari/604.1",,1693,980,-150.0,100.0,-25.0,50.0,205354.00000000003,A,1096.0,206450.00000000003,67.0,-250.0,0.0,1150.0,-150.0,
0,1234,-999999,0,0,IowaTask-v2.0,-mobile,jspsych-0.3a-mobile,1,List1,2024-04-29,0,0,projectseed-iowa-production,0.0-0.0-2.0-0.67,eng,6e64b31c6348ac9d094febdaa4fdb26e97e83af1,True,adolescent,509.0,896,414,896,414,88db5135-3b75-423a-9a41-a83421c1644e,88db5135-3b75-423a-9a41-a83421c1644e,projectseed_production_april2024,6,,209046,270,html-button-response,"Mozilla/5.0 (iPhone; CPU iPhone OS 16_1 like Mac OS X) AppleWebKit/605.1.15 (KHTML, like Gecko) Version/16.1 Mobile/15E148 Safari/604.1",,1693,980,100.0,100.0,-25.0,50.0,208762.00000000003,A,509.0,209271.00000000003,68.0,0.0,0.0,1250.0,100.0,
0,1234,-999999,0,0,IowaTask-v2.0,-mobile,jspsych-0.3a-mobile,1,List1,2024-04-29,0,0,projectseed-iowa-production,0.0-0.0-2.0-0.68,eng,6e64b31c6348ac9d094febdaa4fdb26e97e83af1,True,adolescent,1584.0,896,414,896,414,88db5135-3b75-423a-9a41-a83421c1644e,88db5135-3b75-423a-9a41-a83421c1644e,projectseed_production_april2024,6,,211942,274,html-button-response,"Mozilla/5.0 (iPhone; CPU iPhone OS 16_1 like Mac OS X) AppleWebKit/605.1.15 (KHTML, like Gecko) Version/16.1 Mobile/15E148 Safari/604.1",,1693,980,-50.0,100.0,-25.0,50.0,210582.0,B,1584.0,212166.0,69.0,0.0,1.0,1350.0,100.0,
0,1234,-999999,0,0,IowaTask-v2.0,-mobile,jspsych-0.3a-mobile,1,List1,2024-04-29,0,0,projectseed-iowa-production,0.0-0.0-2.0-0.69,eng,6e64b31c6348ac9d094febdaa4fdb26e97e83af1,True,adolescent,972.0,896,414,896,414,88db5135-3b75-423a-9a41-a83421c1644e,88db5135-3b75-423a-9a41-a83421c1644e,projectseed_production_april2024,6,,214225,278,html-button-response,"Mozilla/5.0 (iPhone; CPU iPhone OS 16_1 like Mac OS X) AppleWebKit/605.1.15 (KHTML, like Gecko) Version/16.1 Mobile/15E148 Safari/604.1",,1693,980,-50.0,100.0,-25.0,50.0,213478.00000000003,B,972.0,214450.00000000003,70.0,0.0,1.0,1450.0,100.0,
0,1234,-999999,0,0,IowaTask-v2.0,-mobile,jspsych-0.3a-mobile,1,List1,2024-04-29,0,0,projectseed-iowa-production,0.0-0.0-2.0-0.70,eng,6e64b31c6348ac9d094febdaa4fdb26e97e83af1,True,adolescent,655.0,896,414,896,414,88db5135-3b75-423a-9a41-a83421c1644e,88db5135-3b75-423a-9a41-a83421c1644e,projectseed_production_april2024,6,,216191,282,html-button-response,"Mozilla/5.0 (iPhone; CPU iPhone OS 16_1 like Mac OS X) AppleWebKit/605.1.15 (KHTML, like Gecko) Version/16.1 Mobile/15E148 Safari/604.1",,1693,980,-50.0,-1150.0,-25.0,50.0,215761.0,C,655.0,216416.0,71.0,-75.0,2.0,1425.0,-25.0,
0,1234,-999999,0,0,IowaTask-v2.0,-mobile,jspsych-0.3a-mobile,1,List1,2024-04-29,0,0,projectseed-iowa-production,0.0-0.0-2.0-0.71,eng,6e64b31c6348ac9d094febdaa4fdb26e97e83af1,True,adolescent,408.0,896,414,896,414,88db5135-3b75-423a-9a41-a83421c1644e,88db5135-3b75-423a-9a41-a83421c1644e,projectseed_production_april2024,6,,218916,286,html-button-response,"Mozilla/5.0 (iPhone; CPU iPhone OS 16_1 like Mac OS X) AppleWebKit/605.1.15 (KHTML, like Gecko) Version/16.1 Mobile/15E148 Safari/604.1",,1693,980,-50.0,-1150.0,-25.0,50.0,218733.0,D,408.0,219141.0,72.0,0.0,3.0,1475.0,50.0,
0,1234,-999999,0,0,IowaTask-v2.0,-mobile,jspsych-0.3a-mobile,1,List1,2024-04-29,0,0,projectseed-iowa-production,0.0-0.0-2.0-0.72,eng,6e64b31c6348ac9d094febdaa4fdb26e97e83af1,True,adolescent,1370.0,896,414,896,414,88db5135-3b75-423a-9a41-a83421c1644e,88db5135-3b75-423a-9a41-a83421c1644e,projectseed_production_april2024,6,,221599,290,html-button-response,"Mozilla/5.0 (iPhone; CPU iPhone OS 16_1 like Mac OS X) AppleWebKit/605.1.15 (KHTML, like Gecko) Version/16.1 Mobile/15E148 Safari/604.1",,1693,980,-50.0,-1150.0,-25.0,50.0,220454.0,D,1370.0,221824.0,73.0,0.0,3.0,1525.0,50.0,
0,1234,-999999,0,0,IowaTask-v2.0,-mobile,jspsych-0.3a-mobile,1,List1,2024-04-29,0,0,projectseed-iowa-production,0.0-0.0-2.0-0.73,eng,6e64b31c6348ac9d094febdaa4fdb26e97e83af1,True,adolescent,894.0,896,414,896,414,88db5135-3b75-423a-9a41-a83421c1644e,88db5135-3b75-423a-9a41-a83421c1644e,projectseed_production_april2024,6,,223807,294,html-button-response,"Mozilla/5.0 (iPhone; CPU iPhone OS 16_1 like Mac OS X) AppleWebKit/605.1.15 (KHTML, like Gecko) Version/16.1 Mobile/15E148 Safari/604.1",,1693,980,-50.0,-1150.0,-25.0,50.0,223138.0,A,894.0,224032.0,74.0,-150.0,0.0,1475.0,-50.0,
0,1234,-999999,0,0,IowaTask-v2.0,-mobile,jspsych-0.3a-mobile,1,List1,2024-04-29,0,0,projectseed-iowa-production,0.0-0.0-2.0-0.74,eng,6e64b31c6348ac9d094febdaa4fdb26e97e83af1,True,adolescent,391.0,896,414,896,414,88db5135-3b75-423a-9a41-a83421c1644e,88db5135-3b75-423a-9a41-a83421c1644e,projectseed_production_april2024,6,,226514,298,html-button-response,"Mozilla/5.0 (iPhone; CPU iPhone OS 16_1 like Mac OS X) AppleWebKit/605.1.15 (KHTML, like Gecko) Version/16.1 Mobile/15E148 Safari/604.1",,1693,980,100.0,-1150.0,-25.0,50.0,226348.0,A,391.0,226739.0,75.0,0.0,0.0,1575.0,100.0,
0,1234,-999999,0,0,IowaTask-v2.0,-mobile,jspsych-0.3a-mobile,1,List1,2024-04-29,0,0,projectseed-iowa-production,0.0-0.0-2.0-0.75,eng,6e64b31c6348ac9d094febdaa4fdb26e97e83af1,True,adolescent,771.0,896,414,896,414,88db5135-3b75-423a-9a41-a83421c1644e,88db5135-3b75-423a-9a41-a83421c1644e,projectseed_production_april2024,6,,228597,302,html-button-response,"Mozilla/5.0 (iPhone; CPU iPhone OS 16_1 like Mac OS X) AppleWebKit/605.1.15 (KHTML, like Gecko) Version/16.1 Mobile/15E148 Safari/604.1",,1693,980,100.0,-1150.0,-25.0,50.0,228051.0,A,771.0,228822.0,76.0,0.0,0.0,1675.0,100.0,
0,1234,-999999,0,0,IowaTask-v2.0,-mobile,jspsych-0.3a-mobile,1,List1,2024-04-29,0,0,projectseed-iowa-production,0.0-0.0-2.0-0.76,eng,6e64b31c6348ac9d094febdaa4fdb26e97e83af1,True,adolescent,1007.0,896,414,896,414,88db5135-3b75-423a-9a41-a83421c1644e,88db5135-3b75-423a-9a41-a83421c1644e,projectseed_production_april2024,6,,230915,306,html-button-response,"Mozilla/5.0 (iPhone; CPU iPhone OS 16_1 like Mac OS X) AppleWebKit/605.1.15 (KHTML, like Gecko) Version/16.1 Mobile/15E148 Safari/604.1",,1693,980,100.0,-1150.0,-25.0,50.0,230133.00000000003,B,1007.0,231140.00000000003,77.0,-1250.0,1.0,525.0,-1150.0,
0,1234,-999999,0,0,IowaTask-v2.0,-mobile,jspsych-0.3a-mobile,1,List1,2024-04-29,0,0,projectseed-iowa-production,0.0-0.0-2.0-0.77,eng,6e64b31c6348ac9d094febdaa4fdb26e97e83af1,True,adolescent,816.0,896,414,896,414,88db5135-3b75-423a-9a41-a83421c1644e,88db5135-3b75-423a-9a41-a83421c1644e,projectseed_production_april2024,6,,234043,310,html-button-response,"Mozilla/5.0 (iPhone; CPU iPhone OS 16_1 like Mac OS X) AppleWebKit/605.1.15 (KHTML, like Gecko) Version/16.1 Mobile/15E148 Safari/604.1",,1693,980,100.0,100.0,-25.0,50.0,233452.0,A,816.0,234268.0,78.0,0.0,0.0,625.0,100.0,
0,1234,-999999,0,0,IowaTask-v2.0,-mobile,jspsych-0.3a-mobile,1,List1,2024-04-29,0,0,projectseed-iowa-production,0.0-0.0-2.0-0.78,eng,6e64b31c6348ac9d094febdaa4fdb26e97e83af1,True,adolescent,501.0,896,414,896,414,88db5135-3b75-423a-9a41-a83421c1644e,88db5135-3b75-423a-9a41-a83421c1644e,projectseed_production_april2024,6,,235866,314,html-button-response,"Mozilla/5.0 (iPhone; CPU iPhone OS 16_1 like Mac OS X) AppleWebKit/605.1.15 (KHTML, like Gecko) Version/16.1 Mobile/15E148 Safari/604.1",,1693,980,-250.0,100.0,-25.0,50.0,235590.0,A,501.0,236091.0,79.0,-350.0,0.0,375.0,-250.0,
0,1234,-999999,0,0,IowaTask-v2.0,-mobile,jspsych-0.3a-mobile,1,List1,2024-04-29,0,0,projectseed-iowa-production,0.0-0.0-2.0-0.79,eng,6e64b31c6348ac9d094febdaa4fdb26e97e83af1,True,adolescent,428.0,896,414,896,414,88db5135-3b75-423a-9a41-a83421c1644e,88db5135-3b75-423a-9a41-a83421c1644e,projectseed_production_april2024,6,,238608,318,html-button-response,"Mozilla/5.0 (iPhone; CPU iPhone OS 16_1 like Mac OS X) AppleWebKit/605.1.15 (KHTML, like Gecko) Version/16.1 Mobile/15E148 Safari/604.1",,1693,980,-200.0,100.0,-25.0,50.0,238405.0,C,428.0,238833.0,80.0,-75.0,2.0,350.0,-25.0,
0,1234,-999999,0,0,IowaTask-v2.0,-mobile,jspsych-0.3a-mobile,1,List1,2024-04-29,0,0,projectseed-iowa-production,0.0-0.0-2.0-0.80,eng,6e64b31c6348ac9d094febdaa4fdb26e97e83af1,True,adolescent,404.0,896,414,896,414,88db5135-3b75-423a-9a41-a83421c1644e,88db5135-3b75-423a-9a41-a83421c1644e,projectseed_production_april2024,6,,241324,322,html-button-response,"Mozilla/5.0 (iPhone; CPU iPhone OS 16_1 like Mac OS X) AppleWebKit/605.1.15 (KHTML, like Gecko) Version/16.1 Mobile/15E148 Safari/604.1",,1693,980,-200.0,100.0,50.0,50.0,241145.0,D,404.0,241549.0,81.0,0.0,3.0,400.0,50.0,
0,1234,-999999,0,0,IowaTask-v2.0,-mobile,jspsych-0.3a-mobile,1,List1,2024-04-29,0,0,projectseed-iowa-production,0.0-0.0-2.0-0.81,eng,6e64b31c6348ac9d094febdaa4fdb26e97e83af1,True,adolescent,461.0,896,414,896,414,88db5135-3b75-423a-9a41-a83421c1644e,88db5135-3b75-423a-9a41-a83421c1644e,projectseed_production_april2024,6,,243097,326,html-button-response,"Mozilla/5.0 (iPhone; CPU iPhone OS 16_1 like Mac OS X) AppleWebKit/605.1.15 (KHTML, like Gecko) Version/16.1 Mobile/15E148 Safari/604.1",,1693,980,-200.0,100.0,50.0,50.0,242861.0,B,461.0,243322.0,82.0,0.0,1.0,500.0,100.0,
0,1234,-999999,0,0,IowaTask-v2.0,-mobile,jspsych-0.3a-mobile,1,List1,2024-04-29,0,0,projectseed-iowa-production,0.0-0.0-2.0-0.82,eng,6e64b31c6348ac9d094febdaa4fdb26e97e83af1,True,adolescent,425.0,896,414,896,414,88db5135-3b75-423a-9a41-a83421c1644e,88db5135-3b75-423a-9a41-a83421c1644e,projectseed_production_april2024,6,,244832,330,html-button-response,"Mozilla/5.0 (iPhone; CPU iPhone OS 16_1 like Mac OS X) AppleWebKit/605.1.15 (KHTML, like Gecko) Version/16.1 Mobile/15E148 Safari/604.1",,1693,980,-200.0,100.0,50.0,50.0,244632.00000000003,A,425.0,245057.00000000003,83.0,-300.0,0.0,300.0,-200.0,
0,1234,-999999,0,0,IowaTask-v2.0,-mobile,jspsych-0.3a-mobile,1,List1,2024-04-29,0,0,projectseed-iowa-production,0.0-0.0-2.0-0.83,eng,6e64b31c6348ac9d094febdaa4fdb26e97e83af1,True,adolescent,459.0,896,414,896,414,88db5135-3b75-423a-9a41-a83421c1644e,88db5135-3b75-423a-9a41-a83421c1644e,projectseed_production_april2024,6,,247602,334,html-button-response,"Mozilla/5.0 (iPhone; CPU iPhone OS 16_1 like Mac OS X) AppleWebKit/605.1.15 (KHTML, like Gecko) Version/16.1 Mobile/15E148 Safari/604.1",,1693,980,100.0,100.0,50.0,50.0,247369.0,D,459.0,247828.0,84.0,0.0,3.0,350.0,50.0,
0,1234,-999999,0,0,IowaTask-v2.0,-mobile,jspsych-0.3a-mobile,1,List1,2024-04-29,0,0,projectseed-iowa-production,0.0-0.0-2.0-0.84,eng,6e64b31c6348ac9d094febdaa4fdb26e97e83af1,True,adolescent,500.0,896,414,896,414,88db5135-3b75-423a-9a41-a83421c1644e,88db5135-3b75-423a-9a41-a83421c1644e,projectseed_production_april2024,6,,249414,338,html-button-response,"Mozilla/5.0 (iPhone; CPU iPhone OS 16_1 like Mac OS X) AppleWebKit/605.1.15 (KHTML, like Gecko) Version/16.1 Mobile/15E148 Safari/604.1",,1693,980,100.0,100.0,50.0,50.0,249139.0,D,500.0,249639.0,85.0,0.0,3.0,400.0,50.0,
0,1234,-999999,0,0,IowaTask-v2.0,-mobile,jspsych-0.3a-mobile,1,List1,2024-04-29,0,0,projectseed-iowa-production,0.0-0.0-2.0-0.85,eng,6e64b31c6348ac9d094febdaa4fdb26e97e83af1,True,adolescent,482.0,896,414,896,414,88db5135-3b75-423a-9a41-a83421c1644e,88db5135-3b75-423a-9a41-a83421c1644e,projectseed_production_april2024,6,,251207,342,html-button-response,"Mozilla/5.0 (iPhone; CPU iPhone OS 16_1 like Mac OS X) AppleWebKit/605.1.15 (KHTML, like Gecko) Version/16.1 Mobile/15E148 Safari/604.1",,1693,980,100.0,100.0,50.0,50.0,250950.00000000003,B,482.0,251432.00000000003,86.0,0.0,1.0,500.0,100.0,
0,1234,-999999,0,0,IowaTask-v2.0,-mobile,jspsych-0.3a-mobile,1,List1,2024-04-29,0,0,projectseed-iowa-production,0.0-0.0-2.0-0.86,eng,6e64b31c6348ac9d094febdaa4fdb26e97e83af1,True,adolescent,513.0,896,414,896,414,88db5135-3b75-423a-9a41-a83421c1644e,88db5135-3b75-423a-9a41-a83421c1644e,projectseed_production_april2024,6,,253031,346,html-button-response,"Mozilla/5.0 (iPhone; CPU iPhone OS 16_1 like Mac OS X) AppleWebKit/605.1.15 (KHTML, like Gecko) Version/16.1 Mobile/15E148 Safari/604.1",,1693,980,100.0,100.0,50.0,50.0,252743.0,A,513.0,253256.0,87.0,0.0,0.0,600.0,100.0,
0,1234,-999999,0,0,IowaTask-v2.0,-mobile,jspsych-0.3a-mobile,1,List1,2024-04-29,0,0,projectseed-iowa-production,0.0-0.0-2.0-0.87,eng,6e64b31c6348ac9d094febdaa4fdb26e97e83af1,True,adolescent,530.0,896,414,896,414,88db5135-3b75-423a-9a41-a83421c1644e,88db5135-3b75-423a-9a41-a83421c1644e,projectseed_production_april2024,6,,254872,350,html-button-response,"Mozilla/5.0 (iPhone; CPU iPhone OS 16_1 like Mac OS X) AppleWebKit/605.1.15 (KHTML, like Gecko) Version/16.1 Mobile/15E148 Safari/604.1",,1693,980,100.0,100.0,50.0,50.0,254567.0,B,530.0,255097.0,88.0,0.0,1.0,700.0,100.0,
0,1234,-999999,0,0,IowaTask-v2.0,-mobile,jspsych-0.3a-mobile,1,List1,2024-04-29,0,0,projectseed-iowa-production,0.0-0.0-2.0-0.88,eng,6e64b31c6348ac9d094febdaa4fdb26e97e83af1,True,adolescent,446.0,896,414,896,414,88db5135-3b75-423a-9a41-a83421c1644e,88db5135-3b75-423a-9a41-a83421c1644e,projectseed_production_april2024,6,,256630,354,html-button-response,"Mozilla/5.0 (iPhone; CPU iPhone OS 16_1 like Mac OS X) AppleWebKit/605.1.15 (KHTML, like Gecko) Version/16.1 Mobile/15E148 Safari/604.1",,1693,980,100.0,100.0,50.0,50.0,256409.00000000003,C,446.0,256855.00000000003,89.0,0.0,2.0,750.0,50.0,
0,1234,-999999,0,0,IowaTask-v2.0,-mobile,jspsych-0.3a-mobile,1,List1,2024-04-29,0,0,projectseed-iowa-production,0.0-0.0-2.0-0.89,eng,6e64b31c6348ac9d094febdaa4fdb26e97e83af1,True,adolescent,507.0,896,414,896,414,88db5135-3b75-423a-9a41-a83421c1644e,88db5135-3b75-423a-9a41-a83421c1644e,projectseed_production_april2024,6,,258456,358,html-button-response,"Mozilla/5.0 (iPhone; CPU iPhone OS 16_1 like Mac OS X) AppleWebKit/605.1.15 (KHTML, like Gecko) Version/16.1 Mobile/15E148 Safari/604.1",,1693,980,100.0,100.0,50.0,50.0,258175.00000000003,B,507.0,258682.00000000003,90.0,0.0,1.0,850.0,100.0,
0,1234,-999999,0,0,IowaTask-v2.0,-mobile,jspsych-0.3a-mobile,1,List1,2024-04-29,0,0,projectseed-iowa-production,0.0-0.0-2.0-0.90,eng,6e64b31c6348ac9d094febdaa4fdb26e97e83af1,True,adolescent,852.0,896,414,896,414,88db5135-3b75-423a-9a41-a83421c1644e,88db5135-3b75-423a-9a41-a83421c1644e,projectseed_production_april2024,6,,260623,362,html-button-response,"Mozilla/5.0 (iPhone; CPU iPhone OS 16_1 like Mac OS X) AppleWebKit/605.1.15 (KHTML, like Gecko) Version/16.1 Mobile/15E148 Safari/604.1",,1693,980,100.0,100.0,50.0,50.0,259996.0,A,852.0,260848.0,91.0,0.0,0.0,950.0,100.0,
0,1234,-999999,0,0,IowaTask-v2.0,-mobile,jspsych-0.3a-mobile,1,List1,2024-04-29,0,0,projectseed-iowa-production,0.0-0.0-2.0-0.91,eng,6e64b31c6348ac9d094febdaa4fdb26e97e83af1,True,adolescent,524.0,896,414,896,414,88db5135-3b75-423a-9a41-a83421c1644e,88db5135-3b75-423a-9a41-a83421c1644e,projectseed_production_april2024,6,,262456,366,html-button-response,"Mozilla/5.0 (iPhone; CPU iPhone OS 16_1 like Mac OS X) AppleWebKit/605.1.15 (KHTML, like Gecko) Version/16.1 Mobile/15E148 Safari/604.1",,1693,980,-50.0,100.0,50.0,50.0,262157.0,B,524.0,262681.0,92.0,0.0,1.0,1050.0,100.0,
0,1234,-999999,0,0,IowaTask-v2.0,-mobile,jspsych-0.3a-mobile,1,List1,2024-04-29,0,0,projectseed-iowa-production,0.0-0.0-2.0-0.92,eng,6e64b31c6348ac9d094febdaa4fdb26e97e83af1,True,adolescent,830.0,896,414,896,414,88db5135-3b75-423a-9a41-a83421c1644e,88db5135-3b75-423a-9a41-a83421c1644e,projectseed_production_april2024,6,,264598,370,html-button-response,"Mozilla/5.0 (iPhone; CPU iPhone OS 16_1 like Mac OS X) AppleWebKit/605.1.15 (KHTML, like Gecko) Version/16.1 Mobile/15E148 Safari/604.1",,1693,980,-50.0,100.0,50.0,50.0,263993.0,A,830.0,264823.0,93.0,-150.0,0.0,1000.0,-50.0,
0,1234,-999999,0,0,IowaTask-v2.0,-mobile,jspsych-0.3a-mobile,1,List1,2024-04-29,0,0,projectseed-iowa-production,0.0-0.0-2.0-0.93,eng,6e64b31c6348ac9d094febdaa4fdb26e97e83af1,True,adolescent,427.0,896,414,896,414,88db5135-3b75-423a-9a41-a83421c1644e,88db5135-3b75-423a-9a41-a83421c1644e,projectseed_production_april2024,6,,267336,374,html-button-response,"Mozilla/5.0 (iPhone; CPU iPhone OS 16_1 like Mac OS X) AppleWebKit/605.1.15 (KHTML, like Gecko) Version/16.1 Mobile/15E148 Safari/604.1",,1693,980,-100.0,100.0,50.0,50.0,267134.0,B,427.0,267561.0,94.0,0.0,1.0,1100.0,100.0,
0,1234,-999999,0,0,IowaTask-v2.0,-mobile,jspsych-0.3a-mobile,1,List1,2024-04-29,0,0,projectseed-iowa-production,0.0-0.0-2.0-0.94,eng,6e64b31c6348ac9d094febdaa4fdb26e97e83af1,True,adolescent,804.0,896,414,896,414,88db5135-3b75-423a-9a41-a83421c1644e,88db5135-3b75-423a-9a41-a83421c1644e,projectseed_production_april2024,6,,269452,378,html-button-response,"Mozilla/5.0 (iPhone; CPU iPhone OS 16_1 like Mac OS X) AppleWebKit/605.1.15 (KHTML, like Gecko) Version/16.1 Mobile/15E148 Safari/604.1",,1693,980,-100.0,100.0,50.0,50.0,268873.0,B,804.0,269677.0,95.0,0.0,1.0,1200.0,100.0,
0,1234,-999999,0,0,IowaTask-v2.0,-mobile,jspsych-0.3a-mobile,1,List1,2024-04-29,0,0,projectseed-iowa-production,0.0-0.0-2.0-0.95,eng,6e64b31c6348ac9d094febdaa4fdb26e97e83af1,True,adolescent,674.0,896,414,896,414,88db5135-3b75-423a-9a41-a83421c1644e,88db5135-3b75-423a-9a41-a83421c1644e,projectseed_production_april2024,6,,271436,382,html-button-response,"Mozilla/5.0 (iPhone; CPU iPhone OS 16_1 like Mac OS X) AppleWebKit/605.1.15 (KHTML, like Gecko) Version/16.1 Mobile/15E148 Safari/604.1",,1693,980,-100.0,100.0,50.0,50.0,270988.0,A,674.0,271662.0,96.0,-200.0,0.0,1100.0,-100.0,
0,1234,-999999,0,0,IowaTask-v2.0,-mobile,jspsych-0.3a-mobile,1,List1,2024-04-29,0,0,projectseed-iowa-production,0.0-0.0-2.0-0.96,eng,6e64b31c6348ac9d094febdaa4fdb26e97e83af1,True,adolescent,63.0,896,414,896,414,88db5135-3b75-423a-9a41-a83421c1644e,88db5135-3b75-423a-9a41-a83421c1644e,projectseed_production_april2024,6,,273808,386,html-button-response,"Mozilla/5.0 (iPhone; CPU iPhone OS 16_1 like Mac OS X) AppleWebKit/605.1.15 (KHTML, like Gecko) Version/16.1 Mobile/15E148 Safari/604.1",,1693,980,-150.0,100.0,50.0,50.0,273970.0,A,63.0,274033.0,97.0,-250.0,0.0,950.0,-150.0,
0,1234,-999999,0,0,IowaTask-v2.0,-mobile,jspsych-0.3a-mobile,1,List1,2024-04-29,0,0,projectseed-iowa-production,0.0-0.0-2.0-0.97,eng,6e64b31c6348ac9d094febdaa4fdb26e97e83af1,True,adolescent,140.0,896,414,896,414,88db5135-3b75-423a-9a41-a83421c1644e,88db5135-3b75-423a-9a41-a83421c1644e,projectseed_production_april2024,6,,276259,390,html-button-response,"Mozilla/5.0 (iPhone; CPU iPhone OS 16_1 like Mac OS X) AppleWebKit/605.1.15 (KHTML, like Gecko) Version/16.1 Mobile/15E148 Safari/604.1",,1693,980,100.0,100.0,50.0,50.0,276344.0,A,140.0,276484.0,98.0,0.0,0.0,1050.0,100.0,
0,1234,-999999,0,0,IowaTask-v2.0,-mobile,jspsych-0.3a-mobile,1,List1,2024-04-29,0,0,projectseed-iowa-production,0.0-0.0-2.0-0.98,eng,6e64b31c6348ac9d094febdaa4fdb26e97e83af1,True,adolescent,827.0,896,414,896,414,88db5135-3b75-423a-9a41-a83421c1644e,88db5135-3b75-423a-9a41-a83421c1644e,projectseed_production_april2024,6,,278397,394,html-button-response,"Mozilla/5.0 (iPhone; CPU iPhone OS 16_1 like Mac OS X) AppleWebKit/605.1.15 (KHTML, like Gecko) Version/16.1 Mobile/15E148 Safari/604.1",,1693,980,100.0,100.0,50.0,50.0,277796.0,A,827.0,278623.0,99.0,0.0,0.0,1150.0,100.0,
0,1234,-999999,0,0,IowaTask-v2.0,-mobile,jspsych-0.3a-mobile,1,List1,2024-04-29,0,0,projectseed-iowa-production,0.0-0.0-2.0-0.99,eng,6e64b31c6348ac9d094febdaa4fdb26e97e83af1,True,adolescent,459.0,896,414,896,414,88db5135-3b75-423a-9a41-a83421c1644e,88db5135-3b75-423a-9a41-a83421c1644e,projectseed_production_april2024,6,,280171,398,html-button-response,"Mozilla/5.0 (iPhone; CPU iPhone OS 16_1 like Mac OS X) AppleWebKit/605.1.15 (KHTML, like Gecko) Version/16.1 Mobile/15E148 Safari/604.1",,1693,980,-50.0,100.0,50.0,50.0,279938.0,B,459.0,280397.0,100.0,0.0,1.0,1250.0,100.0,
0,1234,-999999,0,0,IowaTask-v2.0,-mobile,jspsych-0.3a-mobile,1,List1,2024-04-29,0,0,projectseed-iowa-production,0.0-0.0-2.0-0.100,eng,6e64b31c6348ac9d094febdaa4fdb26e97e83af1,True,adolescent,828.0,896,414,896,414,88db5135-3b75-423a-9a41-a83421c1644e,88db5135-3b75-423a-9a41-a83421c1644e,projectseed_production_april2024,6,,282312,402,html-button-response,"Mozilla/5.0 (iPhone; CPU iPhone OS 16_1 like Mac OS X) AppleWebKit/605.1.15 (KHTML, like Gecko) Version/16.1 Mobile/15E148 Safari/604.1",,1693,980,-50.0,100.0,50.0,50.0,281709.0,A,828.0,282537.0,101.0,-150.0,0.0,1200.0,-50.0,
0,1234,-999999,0,0,IowaTask-v2.0,-mobile,jspsych-0.3a-mobile,1,List1,2024-04-29,0,0,projectseed-iowa-production,0.0-0.0-2.0-0.101,eng,6e64b31c6348ac9d094febdaa4fdb26e97e83af1,True,adolescent,93.0,896,414,896,414,88db5135-3b75-423a-9a41-a83421c1644e,88db5135-3b75-423a-9a41-a83421c1644e,projectseed_production_april2024,6,,284715,406,html-button-response,"Mozilla/5.0 (iPhone; CPU iPhone OS 16_1 like Mac OS X) AppleWebKit/605.1.15 (KHTML, like Gecko) Version/16.1 Mobile/15E148 Safari/604.1",,1693,980,-250.0,100.0,50.0,50.0,284847.0,B,93.0,284940.0,102.0,0.0,1.0,1300.0,100.0,
0,1234,-999999,0,0,IowaTask-v2.0,-mobile,jspsych-0.3a-mobile,1,List1,2024-04-29,0,0,projectseed-iowa-production,0.0-0.0-2.0-0.102,eng,6e64b31c6348ac9d094febdaa4fdb26e97e83af1,True,adolescent,428.0,896,414,896,414,88db5135-3b75-423a-9a41-a83421c1644e,88db5135-3b75-423a-9a41-a83421c1644e,projectseed_production_april2024,6,,286455,410,html-button-response,"Mozilla/5.0 (iPhone; CPU iPhone OS 16_1 like Mac OS X) AppleWebKit/605.1.15 (KHTML, like Gecko) Version/16.1 Mobile/15E148 Safari/604.1",,1693,980,-250.0,100.0,50.0,50.0,286252.0,B,428.0,286680.0,103.0,0.0,1.0,1400.0,100.0,
0,1234,-999999,0,0,IowaTask-v2.0,-mobile,jspsych-0.3a-mobile,1,List1,2024-04-29,0,0,projectseed-iowa-production,0.0-0.0-2.0-0.103,eng,6e64b31c6348ac9d094febdaa4fdb26e97e83af1,True,adolescent,647.0,896,414,896,414,88db5135-3b75-423a-9a41-a83421c1644e,88db5135-3b75-423a-9a41-a83421c1644e,projectseed_production_april2024,6,,288413,414,html-button-response,"Mozilla/5.0 (iPhone; CPU iPhone OS 16_1 like Mac OS X) AppleWebKit/605.1.15 (KHTML, like Gecko) Version/16.1 Mobile/15E148 Safari/604.1",,1693,980,-250.0,100.0,50.0,50.0,287992.0,A,647.0,288639.0,104.0,-350.0,0.0,1150.0,-250.0,
0,1234,-999999,0,0,IowaTask-v2.0,-mobile,jspsych-0.3a-mobile,1,List1,2024-04-29,0,0,projectseed-iowa-production,0.0-0.0-2.0-0.104,eng,6e64b31c6348ac9d094febdaa4fdb26e97e83af1,True,adolescent,117.0,896,414,896,414,88db5135-3b75-423a-9a41-a83421c1644e,88db5135-3b75-423a-9a41-a83421c1644e,projectseed_production_april2024,6,,290840,418,html-button-response,"Mozilla/5.0 (iPhone; CPU iPhone OS 16_1 like Mac OS X) AppleWebKit/605.1.15 (KHTML, like Gecko) Version/16.1 Mobile/15E148 Safari/604.1",,1693,980,-100.0,100.0,50.0,50.0,290949.00000000006,A,117.0,291066.00000000006,105.0,-200.0,0.0,1050.0,-100.0,
0,1234,-999999,0,0,IowaTask-v2.0,-mobile,jspsych-0.3a-mobile,1,List1,2024-04-29,0,0,projectseed-iowa-production,0.0-0.0-2.0-0.105,eng,6e64b31c6348ac9d094febdaa4fdb26e97e83af1,True,adolescent,436.0,896,414,896,414,88db5135-3b75-423a-9a41-a83421c1644e,88db5135-3b75-423a-9a41-a83421c1644e,projectseed_production_april2024,6,,293587,422,html-button-response,"Mozilla/5.0 (iPhone; CPU iPhone OS 16_1 like Mac OS X) AppleWebKit/605.1.15 (KHTML, like Gecko) Version/16.1 Mobile/15E148 Safari/604.1",,1693,980,100.0,100.0,50.0,50.0,293376.0,A,436.0,293812.0,106.0,0.0,0.0,1150.0,100.0,
0,1234,-999999,0,0,IowaTask-v2.0,-mobile,jspsych-0.3a-mobile,1,List1,2024-04-29,0,0,projectseed-iowa-production,0.0-0.0-2.0-0.106,eng,6e64b31c6348ac9d094febdaa4fdb26e97e83af1,True,adolescent,514.0,896,414,896,414,88db5135-3b75-423a-9a41-a83421c1644e,88db5135-3b75-423a-9a41-a83421c1644e,projectseed_production_april2024,6,,295412,426,html-button-response,"Mozilla/5.0 (iPhone; CPU iPhone OS 16_1 like Mac OS X) AppleWebKit/605.1.15 (KHTML, like Gecko) Version/16.1 Mobile/15E148 Safari/604.1",,1693,980,100.0,100.0,50.0,50.0,295124.00000000006,A,514.0,295638.00000000006,107.0,0.0,0.0,1250.0,100.0,
0,1234,-999999,0,0,IowaTask-v2.0,-mobile,jspsych-0.3a-mobile,1,List1,2024-04-29,0,0,projectseed-iowa-production,0.0-0.0-2.0-0.107,eng,6e64b31c6348ac9d094febdaa4fdb26e97e83af1,True,adolescent,547.0,896,414,896,414,88db5135-3b75-423a-9a41-a83421c1644e,88db5135-3b75-423a-9a41-a83421c1644e,projectseed_production_april2024,6,,297277,430,html-button-response,"Mozilla/5.0 (iPhone; CPU iPhone OS 16_1 like Mac OS X) AppleWebKit/605.1.15 (KHTML, like Gecko) Version/16.1 Mobile/15E148 Safari/604.1",,1693,980,100.0,100.0,50.0,50.0,296956.0,B,547.0,297503.0,108.0,0.0,1.0,1350.0,100.0,
0,1234,-999999,0,0,IowaTask-v2.0,-mobile,jspsych-0.3a-mobile,1,List1,2024-04-29,0,0,projectseed-iowa-production,0.0-0.0-2.0-0.108,eng,6e64b31c6348ac9d094febdaa4fdb26e97e83af1,True,adolescent,694.0,896,414,896,414,88db5135-3b75-423a-9a41-a83421c1644e,88db5135-3b75-423a-9a41-a83421c1644e,projectseed_production_april2024,6,,299285,434,html-button-response,"Mozilla/5.0 (iPhone; CPU iPhone OS 16_1 like Mac OS X) AppleWebKit/605.1.15 (KHTML, like Gecko) Version/16.1 Mobile/15E148 Safari/604.1",,1693,980,100.0,100.0,50.0,50.0,298817.0,B,694.0,299511.0,109.0,0.0,1.0,1450.0,100.0,
0,1234,-999999,0,0,IowaTask-v2.0,-mobile,jspsych-0.3a-mobile,1,List1,2024-04-29,0,0,projectseed-iowa-production,0.0-0.0-2.0-0.109,eng,6e64b31c6348ac9d094febdaa4fdb26e97e83af1,True,adolescent,529.0,896,414,896,414,88db5135-3b75-423a-9a41-a83421c1644e,88db5135-3b75-423a-9a41-a83421c1644e,projectseed_production_april2024,6,,301128,438,html-button-response,"Mozilla/5.0 (iPhone; CPU iPhone OS 16_1 like Mac OS X) AppleWebKit/605.1.15 (KHTML, like Gecko) Version/16.1 Mobile/15E148 Safari/604.1",,1693,980,100.0,100.0,50.0,50.0,300824.0,A,529.0,301353.0,110.0,0.0,0.0,1550.0,100.0,
0,1234,-999999,0,0,IowaTask-v2.0,-mobile,jspsych-0.3a-mobile,1,List1,2024-04-29,0,0,projectseed-iowa-production,0.0-0.0-2.0-0.110,eng,6e64b31c6348ac9d094febdaa4fdb26e97e83af1,True,adolescent,873.0,896,414,896,414,88db5135-3b75-423a-9a41-a83421c1644e,88db5135-3b75-423a-9a41-a83421c1644e,projectseed_production_april2024,6,,303311,442,html-button-response,"Mozilla/5.0 (iPhone; CPU iPhone OS 16_1 like Mac OS X) AppleWebKit/605.1.15 (KHTML, like Gecko) Version/16.1 Mobile/15E148 Safari/604.1",,1693,980,-150.0,100.0,50.0,50.0,302664.00000000006,A,873.0,303537.00000000006,111.0,-250.0,0.0,1400.0,-150.0,
0,1234,-999999,0,0,IowaTask-v2.0,-mobile,jspsych-0.3a-mobile,1,List1,2024-04-29,0,0,projectseed-iowa-production,0.0-0.0-2.0-0.111,eng,6e64b31c6348ac9d094febdaa4fdb26e97e83af1,True,adolescent,156.0,896,414,896,414,88db5135-3b75-423a-9a41-a83421c1644e,88db5135-3b75-423a-9a41-a83421c1644e,projectseed_production_april2024,6,,305784,446,html-button-response,"Mozilla/5.0 (iPhone; CPU iPhone OS 16_1 like Mac OS X) AppleWebKit/605.1.15 (KHTML, like Gecko) Version/16.1 Mobile/15E148 Safari/604.1",,1693,980,-200.0,100.0,50.0,50.0,305853.0,B,156.0,306009.0,112.0,0.0,1.0,1500.0,100.0,
0,1234,-999999,0,0,IowaTask-v2.0,-mobile,jspsych-0.3a-mobile,1,List1,2024-04-29,0,0,projectseed-iowa-production,0.0-0.0-2.0-0.112,eng,6e64b31c6348ac9d094febdaa4fdb26e97e83af1,True,adolescent,549.0,896,414,896,414,88db5135-3b75-423a-9a41-a83421c1644e,88db5135-3b75-423a-9a41-a83421c1644e,projectseed_production_april2024,6,,307645,450,html-button-response,"Mozilla/5.0 (iPhone; CPU iPhone OS 16_1 like Mac OS X) AppleWebKit/605.1.15 (KHTML, like Gecko) Version/16.1 Mobile/15E148 Safari/604.1",,1693,980,-200.0,100.0,50.0,50.0,307321.0,B,549.0,307870.0,113.0,0.0,1.0,1600.0,100.0,
0,1234,-999999,0,0,IowaTask-v2.0,-mobile,jspsych-0.3a-mobile,1,List1,2024-04-29,0,0,projectseed-iowa-production,0.0-0.0-2.0-0.113,eng,6e64b31c6348ac9d094febdaa4fdb26e97e83af1,True,adolescent,994.0,896,414,896,414,88db5135-3b75-423a-9a41-a83421c1644e,88db5135-3b75-423a-9a41-a83421c1644e,projectseed_production_april2024,6,,309950,454,html-button-response,"Mozilla/5.0 (iPhone; CPU iPhone OS 16_1 like Mac OS X) AppleWebKit/605.1.15 (KHTML, like Gecko) Version/16.1 Mobile/15E148 Safari/604.1",,1693,980,-200.0,100.0,50.0,50.0,309182.0,B,994.0,310176.0,114.0,0.0,1.0,1700.0,100.0,
0,1234,-999999,0,0,IowaTask-v2.0,-mobile,jspsych-0.3a-mobile,1,List1,2024-04-29,0,0,projectseed-iowa-production,0.0-0.0-2.0-0.114,eng,6e64b31c6348ac9d094febdaa4fdb26e97e83af1,True,adolescent,526.0,896,414,896,414,88db5135-3b75-423a-9a41-a83421c1644e,88db5135-3b75-423a-9a41-a83421c1644e,projectseed_production_april2024,6,,311787,458,html-button-response,"Mozilla/5.0 (iPhone; CPU iPhone OS 16_1 like Mac OS X) AppleWebKit/605.1.15 (KHTML, like Gecko) Version/16.1 Mobile/15E148 Safari/604.1",,1693,980,-200.0,-1150.0,50.0,50.0,311487.00000000006,A,526.0,312013.00000000006,115.0,-300.0,0.0,1500.0,-200.0,
0,1234,-999999,0,0,IowaTask-v2.0,-mobile,jspsych-0.3a-mobile,1,List1,2024-04-29,0,0,projectseed-iowa-production,0.0-0.0-2.0-0.115,eng,6e64b31c6348ac9d094febdaa4fdb26e97e83af1,True,adolescent,441.0,896,414,896,414,88db5135-3b75-423a-9a41-a83421c1644e,88db5135-3b75-423a-9a41-a83421c1644e,projectseed_production_april2024,6,,314542,462,html-button-response,"Mozilla/5.0 (iPhone; CPU iPhone OS 16_1 like Mac OS X) AppleWebKit/605.1.15 (KHTML, like Gecko) Version/16.1 Mobile/15E148 Safari/604.1",,1693,980,100.0,-1150.0,50.0,50.0,314327.0,B,441.0,314768.0,116.0,-1250.0,1.0,350.0,-1150.0,
0,1234,-999999,0,0,IowaTask-v2.0,-mobile,jspsych-0.3a-mobile,1,List1,2024-04-29,0,0,projectseed-iowa-production,0.0-0.0-2.0-0.116,eng,6e64b31c6348ac9d094febdaa4fdb26e97e83af1,True,adolescent,690.0,896,414,896,414,88db5135-3b75-423a-9a41-a83421c1644e,88db5135-3b75-423a-9a41-a83421c1644e,projectseed_production_april2024,6,,317545,466,html-button-response,"Mozilla/5.0 (iPhone; CPU iPhone OS 16_1 like Mac OS X) AppleWebKit/605.1.15 (KHTML, like Gecko) Version/16.1 Mobile/15E148 Safari/604.1",,1693,980,100.0,100.0,50.0,50.0,317080.0,B,690.0,317770.0,117.0,0.0,1.0,450.0,100.0,
0,1234,-999999,0,0,IowaTask-v2.0,-mobile,jspsych-0.3a-mobile,1,List1,2024-04-29,0,0,projectseed-iowa-production,0.0-0.0-2.0-0.117,eng,6e64b31c6348ac9d094febdaa4fdb26e97e83af1,True,adolescent,629.0,896,414,896,414,88db5135-3b75-423a-9a41-a83421c1644e,88db5135-3b75-423a-9a41-a83421c1644e,projectseed_production_april2024,6,,319486,470,html-button-response,"Mozilla/5.0 (iPhone; CPU iPhone OS 16_1 like Mac OS X) AppleWebKit/605.1.15 (KHTML, like Gecko) Version/16.1 Mobile/15E148 Safari/604.1",,1693,980,100.0,100.0,50.0,50.0,319082.0,B,629.0,319711.0,118.0,0.0,1.0,550.0,100.0,
0,1234,-999999,0,0,IowaTask-v2.0,-mobile,jspsych-0.3a-mobile,1,List1,2024-04-29,0,0,projectseed-iowa-production,0.0-0.0-2.0-0.118,eng,6e64b31c6348ac9d094febdaa4fdb26e97e83af1,True,adolescent,151.0,896,414,896,414,88db5135-3b75-423a-9a41-a83421c1644e,88db5135-3b75-423a-9a41-a83421c1644e,projectseed_production_april2024,6,,320949,474,html-button-response,"Mozilla/5.0 (iPhone; CPU iPhone OS 16_1 like Mac OS X) AppleWebKit/605.1.15 (KHTML, like Gecko) Version/16.1 Mobile/15E148 Safari/604.1",,1693,980,100.0,100.0,50.0,50.0,321023.00000000006,B,151.0,321174.00000000006,119.0,0.0,1.0,650.0,100.0,
0,1234,-999999,0,0,IowaTask-v2.0,-mobile,jspsych-0.3a-mobile,1,List1,2024-04-29,0,0,projectseed-iowa-production,0.0-0.0-2.0-0.119,eng,6e64b31c6348ac9d094febdaa4fdb26e97e83af1,True,adolescent,484.0,896,414,896,414,88db5135-3b75-423a-9a41-a83421c1644e,88db5135-3b75-423a-9a41-a83421c1644e,projectseed_production_april2024,6,,322743,478,html-button-response,"Mozilla/5.0 (iPhone; CPU iPhone OS 16_1 like Mac OS X) AppleWebKit/605.1.15 (KHTML, like Gecko) Version/16.1 Mobile/15E148 Safari/604.1",,1693,980,100.0,100.0,50.0,50.0,322485.0,B,484.0,322969.0,120.0,0.0,1.0,750.0,100.0,
0,1234,-999999,0,0,IowaTask-v2.0,-mobile,jspsych-0.3a-mobile,1,List1,2024-04-29,0,0,projectseed-iowa-production,0.0-0.0-2.0-0.120,eng,6e64b31c6348ac9d094febdaa4fdb26e97e83af1,True,adolescent,465.0,896,414,896,414,88db5135-3b75-423a-9a41-a83421c1644e,88db5135-3b75-423a-9a41-a83421c1644e,projectseed_production_april2024,6,,324519,482,html-button-response,"Mozilla/5.0 (iPhone; CPU iPhone OS 16_1 like Mac OS X) AppleWebKit/605.1.15 (KHTML, like Gecko) Version/16.1 Mobile/15E148 Safari/604.1",,1693,980,100.0,100.0,50.0,50.0,324280.0,B,465.0,324745.0,121.0,0.0,1.0,850.0,100.0,
0,1234,-999999,0,0,IowaTask-v2.0,-mobile,jspsych-0.3a-mobile,1,List1,2024-04-29,0,0,projectseed-iowa-production,0.0-0.0-2.0-0.121,eng,6e64b31c6348ac9d094febdaa4fdb26e97e83af1,True,adolescent,447.0,896,414,896,414,88db5135-3b75-423a-9a41-a83421c1644e,88db5135-3b75-423a-9a41-a83421c1644e,projectseed_production_april2024,6,,326277,486,html-button-response,"Mozilla/5.0 (iPhone; CPU iPhone OS 16_1 like Mac OS X) AppleWebKit/605.1.15 (KHTML, like Gecko) Version/16.1 Mobile/15E148 Safari/604.1",,1693,980,100.0,100.0,50.0,50.0,326056.0,B,447.0,326503.0,122.0,0.0,1.0,950.0,100.0,
0,1234,-999999,0,0,IowaTask-v2.0,-mobile,jspsych-0.3a-mobile,1,List1,2024-04-29,0,0,projectseed-iowa-production,0.0-0.0-2.0-0.122,eng,6e64b31c6348ac9d094febdaa4fdb26e97e83af1,True,adolescent,434.0,896,414,896,414,88db5135-3b75-423a-9a41-a83421c1644e,88db5135-3b75-423a-9a41-a83421c1644e,projectseed_production_april2024,6,,328023,490,html-button-response,"Mozilla/5.0 (iPhone; CPU iPhone OS 16_1 like Mac OS X) AppleWebKit/605.1.15 (KHTML, like Gecko) Version/16.1 Mobile/15E148 Safari/604.1",,1693,980,100.0,-1150.0,50.0,50.0,327819.0,B,434.0,328253.0,123.0,-1250.0,1.0,-200.0,-1150.0,
0,1234,-999999,0,0,IowaTask-v2.0,-mobile,jspsych-0.3a-mobile,1,List1,2024-04-29,0,0,projectseed-iowa-production,0.0-0.0-2.0-0.123,eng,6e64b31c6348ac9d094febdaa4fdb26e97e83af1,True,adolescent,876.0,896,414,896,414,88db5135-3b75-423a-9a41-a83421c1644e,88db5135-3b75-423a-9a41-a83421c1644e,projectseed_production_april2024,6,,331218,494,html-button-response,"Mozilla/5.0 (iPhone; CPU iPhone OS 16_1 like Mac OS X) AppleWebKit/605.1.15 (KHTML, like Gecko) Version/16.1 Mobile/15E148 Safari/604.1",,1693,980,100.0,100.0,50.0,50.0,330568.0,B,876.0,331444.0,124.0,0.0,1.0,-100.0,100.0,
0,1234,-999999,0,0,IowaTask-v2.0,-mobile,jspsych-0.3a-mobile,1,List1,2024-04-29,0,0,projectseed-iowa-production,0.0-0.0-2.0-0.124,eng,6e64b31c6348ac9d094febdaa4fdb26e97e83af1,True,adolescent,636.0,896,414,896,414,88db5135-3b75-423a-9a41-a83421c1644e,88db5135-3b75-423a-9a41-a83421c1644e,projectseed_production_april2024,6,,333167,498,html-button-response,"Mozilla/5.0 (iPhone; CPU iPhone OS 16_1 like Mac OS X) AppleWebKit/605.1.15 (KHTML, like Gecko) Version/16.1 Mobile/15E148 Safari/604.1",,1693,980,100.0,100.0,50.0,50.0,332756.0,B,636.0,333392.0,125.0,0.0,1.0,0.0,100.0,
0,1234,-999999,0,0,IowaTask-v2.0,-mobile,jspsych-0.3a-mobile,1,List1,2024-04-29,0,0,projectseed-iowa-production,0.0-0.0-2.0-0.125,eng,6e64b31c6348ac9d094febdaa4fdb26e97e83af1,True,adolescent,596.0,896,414,896,414,88db5135-3b75-423a-9a41-a83421c1644e,88db5135-3b75-423a-9a41-a83421c1644e,projectseed_production_april2024,6,,335075,502,html-button-response,"Mozilla/5.0 (iPhone; CPU iPhone OS 16_1 like Mac OS X) AppleWebKit/605.1.15 (KHTML, like Gecko) Version/16.1 Mobile/15E148 Safari/604.1",,1693,980,100.0,100.0,50.0,50.0,334705.0,B,596.0,335301.0,126.0,0.0,1.0,100.0,100.0,
0,1234,-999999,0,0,IowaTask-v2.0,-mobile,jspsych-0.3a-mobile,1,List1,2024-04-29,0,0,projectseed-iowa-production,0.0-0.0-2.0-0.126,eng,6e64b31c6348ac9d094febdaa4fdb26e97e83af1,True,adolescent,465.0,896,414,896,414,88db5135-3b75-423a-9a41-a83421c1644e,88db5135-3b75-423a-9a41-a83421c1644e,projectseed_production_april2024,6,,336852,506,html-button-response,"Mozilla/5.0 (iPhone; CPU iPhone OS 16_1 like Mac OS X) AppleWebKit/605.1.15 (KHTML, like Gecko) Version/16.1 Mobile/15E148 Safari/604.1",,1693,980,100.0,100.0,50.0,50.0,336613.00000000006,B,465.0,337078.00000000006,127.0,0.0,1.0,200.0,100.0,
0,1234,-999999,0,0,IowaTask-v2.0,-mobile,jspsych-0.3a-mobile,1,List1,2024-04-29,0,0,projectseed-iowa-production,0.0-0.0-2.0-0.127,eng,6e64b31c6348ac9d094febdaa4fdb26e97e83af1,True,adolescent,470.0,896,414,896,414,88db5135-3b75-423a-9a41-a83421c1644e,88db5135-3b75-423a-9a41-a83421c1644e,projectseed_production_april2024,6,,338635,510,html-button-response,"Mozilla/5.0 (iPhone; CPU iPhone OS 16_1 like Mac OS X) AppleWebKit/605.1.15 (KHTML, like Gecko) Version/16.1 Mobile/15E148 Safari/604.1",,1693,980,100.0,-1150.0,50.0,50.0,338390.0,A,470.0,338860.0,128.0,0.0,0.0,300.0,100.0,
0,1234,-999999,0,0,IowaTask-v2.0,-mobile,jspsych-0.3a-mobile,1,List1,2024-04-29,0,0,projectseed-iowa-production,0.0-0.0-2.0-0.128,eng,6e64b31c6348ac9d094febdaa4fdb26e97e83af1,True,adolescent,432.0,896,414,896,414,88db5135-3b75-423a-9a41-a83421c1644e,88db5135-3b75-423a-9a41-a83421c1644e,projectseed_production_april2024,6,,340380,514,html-button-response,"Mozilla/5.0 (iPhone; CPU iPhone OS 16_1 like Mac OS X) AppleWebKit/605.1.15 (KHTML, like Gecko) Version/16.1 Mobile/15E148 Safari/604.1",,1693,980,-250.0,-1150.0,50.0,50.0,340174.0,B,432.0,340606.0,129.0,-1250.0,1.0,-850.0,-1150.0,
0,1234,-999999,0,0,IowaTask-v2.0,-mobile,jspsych-0.3a-mobile,1,List1,2024-04-29,0,0,projectseed-iowa-production,0.0-0.0-2.0-0.129,eng,6e64b31c6348ac9d094febdaa4fdb26e97e83af1,True,adolescent,579.0,896,414,896,414,88db5135-3b75-423a-9a41-a83421c1644e,88db5135-3b75-423a-9a41-a83421c1644e,projectseed_production_april2024,6,,343272,518,html-button-response,"Mozilla/5.0 (iPhone; CPU iPhone OS 16_1 like Mac OS X) AppleWebKit/605.1.15 (KHTML, like Gecko) Version/16.1 Mobile/15E148 Safari/604.1",,1693,980,-250.0,100.0,50.0,50.0,342919.0,B,579.0,343498.0,130.0,0.0,1.0,-750.0,100.0,
0,1234,-999999,0,0,IowaTask-v2.0,-mobile,jspsych-0.3a-mobile,1,List1,2024-04-29,0,0,projectseed-iowa-production,0.0-0.0-2.0-0.130,eng,6e64b31c6348ac9d094febdaa4fdb26e97e83af1,True,adolescent,435.0,896,414,896,414,88db5135-3b75-423a-9a41-a83421c1644e,88db5135-3b75-423a-9a41-a83421c1644e,projectseed_production_april2024,6,,345019,522,html-button-response,"Mozilla/5.0 (iPhone; CPU iPhone OS 16_1 like Mac OS X) AppleWebKit/605.1.15 (KHTML, like Gecko) Version/16.1 Mobile/15E148 Safari/604.1",,1693,980,-250.0,100.0,50.0,50.0,344809.0,B,435.0,345244.0,131.0,0.0,1.0,-650.0,100.0,
0,1234,-999999,0,0,IowaTask-v2.0,-mobile,jspsych-0.3a-mobile,1,List1,2024-04-29,0,0,projectseed-iowa-production,0.0-0.0-2.0-0.131,eng,6e64b31c6348ac9d094febdaa4fdb26e97e83af1,True,adolescent,401.0,896,414,896,414,88db5135-3b75-423a-9a41-a83421c1644e,88db5135-3b75-423a-9a41-a83421c1644e,projectseed_production_april2024,6,,346732,526,html-button-response,"Mozilla/5.0 (iPhone; CPU iPhone OS 16_1 like Mac OS X) AppleWebKit/605.1.15 (KHTML, like Gecko) Version/16.1 Mobile/15E148 Safari/604.1",,1693,980,-250.0,100.0,50.0,50.0,346557.0,B,401.0,346958.0,132.0,0.0,1.0,-550.0,100.0,
0,1234,-999999,0,0,IowaTask-v2.0,-mobile,jspsych-0.3a-mobile,1,List1,2024-04-29,0,0,projectseed-iowa-production,0.0-0.0-2.0-0.132,eng,6e64b31c6348ac9d094febdaa4fdb26e97e83af1,True,adolescent,110.0,896,414,896,414,88db5135-3b75-423a-9a41-a83421c1644e,88db5135-3b75-423a-9a41-a83421c1644e,projectseed_production_april2024,6,,348155,530,html-button-response,"Mozilla/5.0 (iPhone; CPU iPhone OS 16_1 like Mac OS X) AppleWebKit/605.1.15 (KHTML, like Gecko) Version/16.1 Mobile/15E148 Safari/604.1",,1693,980,-250.0,100.0,50.0,50.0,348271.0,B,110.0,348381.0,133.0,0.0,1.0,-450.0,100.0,
0,1234,-999999,0,0,IowaTask-v2.0,-mobile,jspsych-0.3a-mobile,1,List1,2024-04-29,0,0,projectseed-iowa-production,0.0-0.0-2.0-0.133,eng,6e64b31c6348ac9d094febdaa4fdb26e97e83af1,True,adolescent,113.0,896,414,896,414,88db5135-3b75-423a-9a41-a83421c1644e,88db5135-3b75-423a-9a41-a83421c1644e,projectseed_production_april2024,6,,349579,534,html-button-response,"Mozilla/5.0 (iPhone; CPU iPhone OS 16_1 like Mac OS X) AppleWebKit/605.1.15 (KHTML, like Gecko) Version/16.1 Mobile/15E148 Safari/604.1",,1693,980,-250.0,100.0,50.0,50.0,349692.0,B,113.0,349805.0,134.0,0.0,1.0,-350.0,100.0,
0,1234,-999999,0,0,IowaTask-v2.0,-mobile,jspsych-0.3a-mobile,1,List1,2024-04-29,0,0,projectseed-iowa-production,0.0-0.0-2.0-0.134,eng,6e64b31c6348ac9d094febdaa4fdb26e97e83af1,True,adolescent,41.0,896,414,896,414,88db5135-3b75-423a-9a41-a83421c1644e,88db5135-3b75-423a-9a41-a83421c1644e,projectseed_production_april2024,6,,350941,538,html-button-response,"Mozilla/5.0 (iPhone; CPU iPhone OS 16_1 like Mac OS X) AppleWebKit/605.1.15 (KHTML, like Gecko) Version/16.1 Mobile/15E148 Safari/604.1",,1693,980,-250.0,100.0,50.0,50.0,351126.00000000006,B,41.0,351167.00000000006,135.0,0.0,1.0,-250.0,100.0,
0,1234,-999999,0,0,IowaTask-v2.0,-mobile,jspsych-0.3a-mobile,1,List1,2024-04-29,0,0,projectseed-iowa-production,0.0-0.0-2.0-0.135,eng,6e64b31c6348ac9d094febdaa4fdb26e97e83af1,True,adolescent,193.0,896,414,896,414,88db5135-3b75-423a-9a41-a83421c1644e,88db5135-3b75-423a-9a41-a83421c1644e,projectseed_production_april2024,6,,352446,542,html-button-response,"Mozilla/5.0 (iPhone; CPU iPhone OS 16_1 like Mac OS X) AppleWebKit/605.1.15 (KHTML, like Gecko) Version/16.1 Mobile/15E148 Safari/604.1",,1693,980,-250.0,100.0,50.0,50.0,352479.0,B,193.0,352672.0,136.0,0.0,1.0,-150.0,100.0,
0,1234,-999999,0,0,IowaTask-v2.0,-mobile,jspsych-0.3a-mobile,1,List1,2024-04-29,0,0,projectseed-iowa-production,0.0-0.0-2.0-0.136,eng,6e64b31c6348ac9d094febdaa4fdb26e97e83af1,True,adolescent,434.0,896,414,896,414,88db5135-3b75-423a-9a41-a83421c1644e,88db5135-3b75-423a-9a41-a83421c1644e,projectseed_production_april2024,6,,354193,546,html-button-response,"Mozilla/5.0 (iPhone; CPU iPhone OS 16_1 like Mac OS X) AppleWebKit/605.1.15 (KHTML, like Gecko) Version/16.1 Mobile/15E148 Safari/604.1",,1693,980,-250.0,100.0,50.0,50.0,353985.0,B,434.0,354419.0,137.0,0.0,1.0,-50.0,100.0,
0,1234,-999999,0,0,IowaTask-v2.0,-mobile,jspsych-0.3a-mobile,1,List1,2024-04-29,0,0,projectseed-iowa-production,0.0-0.0-2.0-0.137,eng,6e64b31c6348ac9d094febdaa4fdb26e97e83af1,True,adolescent,325.0,896,414,896,414,88db5135-3b75-423a-9a41-a83421c1644e,88db5135-3b75-423a-9a41-a83421c1644e,projectseed_production_april2024,6,,355829,550,html-button-response,"Mozilla/5.0 (iPhone; CPU iPhone OS 16_1 like Mac OS X) AppleWebKit/605.1.15 (KHTML, like Gecko) Version/16.1 Mobile/15E148 Safari/604.1",,1693,980,-250.0,100.0,50.0,50.0,355730.0,B,325.0,356055.0,138.0,0.0,1.0,50.0,100.0,
0,1234,-999999,0,0,IowaTask-v2.0,-mobile,jspsych-0.3a-mobile,1,List1,2024-04-29,0,0,projectseed-iowa-production,0.0-0.0-2.0-0.138,eng,6e64b31c6348ac9d094febdaa4fdb26e97e83af1,True,adolescent,527.0,896,414,896,414,88db5135-3b75-423a-9a41-a83421c1644e,88db5135-3b75-423a-9a41-a83421c1644e,projectseed_production_april2024,6,,357667,554,html-button-response,"Mozilla/5.0 (iPhone; CPU iPhone OS 16_1 like Mac OS X) AppleWebKit/605.1.15 (KHTML, like Gecko) Version/16.1 Mobile/15E148 Safari/604.1",,1693,980,-250.0,100.0,50.0,50.0,357366.0,B,527.0,357893.0,139.0,0.0,1.0,150.0,100.0,
0,1234,-999999,0,0,IowaTask-v2.0,-mobile,jspsych-0.3a-mobile,1,List1,2024-04-29,0,0,projectseed-iowa-production,0.0-0.0-2.0-0.139,eng,6e64b31c6348ac9d094febdaa4fdb26e97e83af1,True,adolescent,571.0,896,414,896,414,88db5135-3b75-423a-9a41-a83421c1644e,88db5135-3b75-423a-9a41-a83421c1644e,projectseed_production_april2024,6,,359550,558,html-button-response,"Mozilla/5.0 (iPhone; CPU iPhone OS 16_1 like Mac OS X) AppleWebKit/605.1.15 (KHTML, like Gecko) Version/16.1 Mobile/15E148 Safari/604.1",,1693,980,-250.0,100.0,50.0,50.0,359205.0,A,571.0,359776.0,140.0,-350.0,0.0,-100.0,-250.0,
