Deck_ACC,Deck_CRESP,Deck_DurationError,Deck_OnsetDelay,Deck_OnsetToOnsetTime,ExperimentName,ExperimentPlatform,ExperimentVersion,List1_Cycle,Running,cycle_start_date,day,expected_trial_count,experiment_name,internal_node_id,lang,last_commit,on_mobile,role,rt,screen_availHeight,screen_availWidth,screen_height,screen_width,session_id,session_uuid,study_id,subject_id,task_section,time_elapsed,trial_index,trial_type,useragent,view_history,window_innerHeight,window_innerWidth,DeckA,DeckB,DeckC,DeckD,Deck_OnsetTime,Deck_RESP,Deck_RT,Deck_RTTime,List1_Sample,loss_event,response,totalsum,var,stimulus
0,1234,-999999,0,0,IowaTask-v2.0,-mobile,jspsych-0.3a-mobile,1,List1,2024-04-29,0,0,projectseed-iowa-production,0.0-0.0-2.0-0.0,eng,6e64b31c6348ac9d094febdaa4fdb26e97e83af1,True,adolescent,3048.0,844,390,844,390,5be94074-db34-43bf-a653-836de720ecc0,5be94074-db34-43bf-a653-836de720ecc0,projectseed_production_april2024,4,,73529,2,html-button-response,"Mozilla/5.0 (iPhone; CPU iPhone OS 17_4 like Mac OS X) AppleWebKit/605.1.15 (KHTML, like Gecko) CriOS/124.0.6367.88 Mobile/15E148 Safari/604.1",,1681,980,100.0,100.0,50.0,50.0,70941.0,D,3048.0,73989.0,1.0,0.0,3.0,2050.0,50.0,
0,1234,-999999,0,0,IowaTask-v2.0,-mobile,jspsych-0.3a-mobile,1,List1,2024-04-29,0,0,projectseed-iowa-production,0.0-0.0-2.0-0.1,eng,6e64b31c6348ac9d094febdaa4fdb26e97e83af1,True,adolescent,1993.0,844,390,844,390,5be94074-db34-43bf-a653-836de720ecc0,5be94074-db34-43bf-a653-836de720ecc0,projectseed_production_april2024,4,,76845,6,html-button-response,"Mozilla/5.0 (iPhone; CPU iPhone OS 17_4 like Mac OS X) AppleWebKit/605.1.15 (KHTML, like Gecko) CriOS/124.0.6367.88 Mobile/15E148 Safari/604.1",,1681,980,100.0,100.0,50.0,50.0,75311.0,B,1993.0,77304.0,2.0,0.0,1.0,2150.0,100.0,
0,1234,-999999,0,0,IowaTask-v2.0,-mobile,jspsych-0.3a-mobile,1,List1,2024-04-29,0,0,projectseed-iowa-production,0.0-0.0-2.0-0.2,eng,6e64b31c6348ac9d094febdaa4fdb26e97e83af1,True,adolescent,1170.0,844,390,844,390,5be94074-db34-43bf-a653-836de720ecc0,5be94074-db34-43bf-a653-836de720ecc0,projectseed_production_april2024,4,,79329,10,html-button-response,"Mozilla/5.0 (iPhone; CPU iPhone OS 17_4 like Mac OS X) AppleWebKit/605.1.15 (KHTML, like Gecko) CriOS/124.0.6367.88 Mobile/15E148 Safari/604.1",,1681,980,100.0,100.0,50.0,50.0,78618.0,A,1170.0,79788.0,3.0,0.0,0.0,2250.0,100.0,
0,1234,-999999,0,0,IowaTask-v2.0,-mobile,jspsych-0.3a-mobile,1,List1,2024-04-29,0,0,projectseed-iowa-production,0.0-0.0-2.0-0.3,eng,6e64b31c6348ac9d094febdaa4fdb26e97e83af1,True,adolescent,2327.0,844,390,844,390,5be94074-db34-43bf-a653-836de720ecc0,5be94074-db34-43bf-a653-836de720ecc0,projectseed_production_april2024,4,,82967,14,html-button-response,"Mozilla/5.0 (iPhone; CPU iPhone OS 17_4 like Mac OS X) AppleWebKit/605.1.15 (KHTML, like Gecko) CriOS/124.0.6367.88 Mobile/15E148 Safari/604.1",,1681,980,-250.0,100.0,50.0,50.0,81099.0,B,2327.0,83426.0,4.0,0.0,1.0,2350.0,100.0,
0,1234,-999999,0,0,IowaTask-v2.0,-mobile,jspsych-0.3a-mobile,1,List1,2024-04-29,0,0,projectseed-iowa-production,0.0-0.0-2.0-0.4,eng,6e64b31c6348ac9d094febdaa4fdb26e97e83af1,True,adolescent,2140.0,844,390,844,390,5be94074-db34-43bf-a653-836de720ecc0,5be94074-db34-43bf-a653-836de720ecc0,projectseed_production_april2024,4,,86420,18,html-button-response,"Mozilla/5.0 (iPhone; CPU iPhone OS 17_4 like Mac OS X) AppleWebKit/605.1.15 (KHTML, like Gecko) CriOS/124.0.6367.88 Mobile/15E148 Safari/604.1",,1681,980,-250.0,100.0,50.0,50.0,84739.0,D,2140.0,86879.0,5.0,0.0,3.0,2400.0,50.0,
0,1234,-999999,0,0,IowaTask-v2.0,-mobile,jspsych-0.3a-mobile,1,List1,2024-04-29,0,0,projectseed-iowa-production,0.0-0.0-2.0-0.5,eng,6e64b31c6348ac9d094febdaa4fdb26e97e83af1,True,adolescent,1997.0,844,390,844,390,5be94074-db34-43bf-a653-836de720ecc0,5be94074-db34-43bf-a653-836de720ecc0,projectseed_production_april2024,4,,89727,22,html-button-response,"Mozilla/5.0 (iPhone; CPU iPhone OS 17_4 like Mac OS X) AppleWebKit/605.1.15 (KHTML, like Gecko) CriOS/124.0.6367.88 Mobile/15E148 Safari/604.1",,1681,980,-250.0,100.0,50.0,50.0,88190.0,C,1997.0,90187.0,6.0,0.0,2.0,2450.0,50.0,
0,1234,-999999,0,0,IowaTask-v2.0,-mobile,jspsych-0.3a-mobile,1,List1,2024-04-29,0,0,projectseed-iowa-production,0.0-0.0-2.0-0.6,eng,6e64b31c6348ac9d094febdaa4fdb26e97e83af1,True,adolescent,3285.0,844,390,844,390,5be94074-db34-43bf-a653-836de720ecc0,5be94074-db34-43bf-a653-836de720ecc0,projectseed_production_april2024,4,,94327,26,html-button-response,"Mozilla/5.0 (iPhone; CPU iPhone OS 17_4 like Mac OS X) AppleWebKit/605.1.15 (KHTML, like Gecko) CriOS/124.0.6367.88 Mobile/15E148 Safari/604.1",,1681,980,-250.0,100.0,0.0,50.0,91501.0,C,3285.0,94786.0,7.0,-50.0,2.0,2450.0,0.0,
0,1234,-999999,0,0,IowaTask-v2.0,-mobile,jspsych-0.3a-mobile,1,List1,2024-04-29,0,0,projectseed-iowa-production,0.0-0.0-2.0-0.7,eng,6e64b31c6348ac9d094febdaa4fdb26e97e83af1,True,adolescent,1057.0,844,390,844,390,5be94074-db34-43bf-a653-836de720ecc0,5be94074-db34-43bf-a653-836de720ecc0,projectseed_production_april2024,4,,97696,30,html-button-response,"Mozilla/5.0 (iPhone; CPU iPhone OS 17_4 like Mac OS X) AppleWebKit/605.1.15 (KHTML, like Gecko) CriOS/124.0.6367.88 Mobile/15E148 Safari/604.1",,1681,980,-250.0,100.0,-25.0,50.0,97099.0,B,1057.0,98156.0,8.0,0.0,1.0,2550.0,100.0,
0,1234,-999999,0,0,IowaTask-v2.0,-mobile,jspsych-0.3a-mobile,1,List1,2024-04-29,0,0,projectseed-iowa-production,0.0-0.0-2.0-0.8,eng,6e64b31c6348ac9d094febdaa4fdb26e97e83af1,True,adolescent,961.0,844,390,844,390,5be94074-db34-43bf-a653-836de720ecc0,5be94074-db34-43bf-a653-836de720ecc0,projectseed_production_april2024,4,,99970,34,html-button-response,"Mozilla/5.0 (iPhone; CPU iPhone OS 17_4 like Mac OS X) AppleWebKit/605.1.15 (KHTML, like Gecko) CriOS/124.0.6367.88 Mobile/15E148 Safari/604.1",,1681,980,-250.0,100.0,-25.0,50.0,99468.0,D,961.0,100429.0,9.0,0.0,3.0,2600.0,50.0,
0,1234,-999999,0,0,IowaTask-v2.0,-mobile,jspsych-0.3a-mobile,1,List1,2024-04-29,0,0,projectseed-iowa-production,0.0-0.0-2.0-0.9,eng,6e64b31c6348ac9d094febdaa4fdb26e97e83af1,True,adolescent,904.0,844,390,844,390,5be94074-db34-43bf-a653-836de720ecc0,5be94074-db34-43bf-a653-836de720ecc0,projectseed_production_april2024,4,,102185,38,html-button-response,"Mozilla/5.0 (iPhone; CPU iPhone OS 17_4 like Mac OS X) AppleWebKit/605.1.15 (KHTML, like Gecko) CriOS/124.0.6367.88 Mobile/15E148 Safari/604.1",,1681,980,-250.0,100.0,-25.0,50.0,101740.0,A,904.0,102644.0,10.0,-350.0,0.0,2350.0,-250.0,
0,1234,-999999,0,0,IowaTask-v2.0,-mobile,jspsych-0.3a-mobile,1,List1,2024-04-29,0,0,projectseed-iowa-production,0.0-0.0-2.0-0.10,eng,6e64b31c6348ac9d094febdaa4fdb26e97e83af1,True,adolescent,835.0,844,390,844,390,5be94074-db34-43bf-a653-836de720ecc0,5be94074-db34-43bf-a653-836de720ecc0,projectseed_production_april2024,4,,105336,42,html-button-response,"Mozilla/5.0 (iPhone; CPU iPhone OS 17_4 like Mac OS X) AppleWebKit/605.1.15 (KHTML, like Gecko) CriOS/124.0.6367.88 Mobile/15E148 Safari/604.1",,1681,980,-200.0,100.0,-25.0,50.0,104960.0,B,835.0,105795.0,11.0,0.0,1.0,2450.0,100.0,
0,1234,-999999,0,0,IowaTask-v2.0,-mobile,jspsych-0.3a-mobile,1,List1,2024-04-29,0,0,projectseed-iowa-production,0.0-0.0-2.0-0.11,eng,6e64b31c6348ac9d094febdaa4fdb26e97e83af1,True,adolescent,792.0,844,390,844,390,5be94074-db34-43bf-a653-836de720ecc0,5be94074-db34-43bf-a653-836de720ecc0,projectseed_production_april2024,4,,107440,46,html-button-response,"Mozilla/5.0 (iPhone; CPU iPhone OS 17_4 like Mac OS X) AppleWebKit/605.1.15 (KHTML, like Gecko) CriOS/124.0.6367.88 Mobile/15E148 Safari/604.1",,1681,980,-200.0,100.0,-25.0,50.0,107107.0,C,792.0,107899.0,12.0,-75.0,2.0,2425.0,-25.0,
0,1234,-999999,0,0,IowaTask-v2.0,-mobile,jspsych-0.3a-mobile,1,List1,2024-04-29,0,0,projectseed-iowa-production,0.0-0.0-2.0-0.12,eng,6e64b31c6348ac9d094febdaa4fdb26e97e83af1,True,adolescent,757.0,844,390,844,390,5be94074-db34-43bf-a653-836de720ecc0,5be94074-db34-43bf-a653-836de720ecc0,projectseed_production_april2024,4,,110508,50,html-button-response,"Mozilla/5.0 (iPhone; CPU iPhone OS 17_4 like Mac OS X) AppleWebKit/605.1.15 (KHTML, like Gecko) CriOS/124.0.6367.88 Mobile/15E148 Safari/604.1",,1681,980,-200.0,100.0,-25.0,50.0,110210.0,B,757.0,110967.0,13.0,0.0,1.0,2525.0,100.0,
0,1234,-999999,0,0,IowaTask-v2.0,-mobile,jspsych-0.3a-mobile,1,List1,2024-04-29,0,0,projectseed-iowa-production,0.0-0.0-2.0-0.13,eng,6e64b31c6348ac9d094febdaa4fdb26e97e83af1,True,adolescent,1324.0,844,390,844,390,5be94074-db34-43bf-a653-836de720ecc0,5be94074-db34-43bf-a653-836de720ecc0,projectseed_production_april2024,4,,113143,54,html-button-response,"Mozilla/5.0 (iPhone; CPU iPhone OS 17_4 like Mac OS X) AppleWebKit/605.1.15 (KHTML, like Gecko) CriOS/124.0.6367.88 Mobile/15E148 Safari/604.1",,1681,980,-200.0,100.0,-25.0,50.0,112278.0,A,1324.0,113602.0,14.0,-300.0,0.0,2325.0,-200.0,
0,1234,-999999,0,0,IowaTask-v2.0,-mobile,jspsych-0.3a-mobile,1,List1,2024-04-29,0,0,projectseed-iowa-production,0.0-0.0-2.0-0.14,eng,6e64b31c6348ac9d094febdaa4fdb26e97e83af1,True,adolescent,809.0,844,390,844,390,5be94074-db34-43bf-a653-836de720ecc0,5be94074-db34-43bf-a653-836de720ecc0,projectseed_production_april2024,4,,116263,58,html-button-response,"Mozilla/5.0 (iPhone; CPU iPhone OS 17_4 like Mac OS X) AppleWebKit/605.1.15 (KHTML, like Gecko) CriOS/124.0.6367.88 Mobile/15E148 Safari/604.1",,1681,980,100.0,100.0,-25.0,50.0,115913.00000000001,D,809.0,116722.00000000001,15.0,0.0,3.0,2375.0,50.0,
0,1234,-999999,0,0,IowaTask-v2.0,-mobile,jspsych-0.3a-mobile,1,List1,2024-04-29,0,0,projectseed-iowa-production,0.0-0.0-2.0-0.15,eng,6e64b31c6348ac9d094febdaa4fdb26e97e83af1,True,adolescent,758.0,844,390,844,390,5be94074-db34-43bf-a653-836de720ecc0,5be94074-db34-43bf-a653-836de720ecc0,projectseed_production_april2024,4,,118332,62,html-button-response,"Mozilla/5.0 (iPhone; CPU iPhone OS 17_4 like Mac OS X) AppleWebKit/605.1.15 (KHTML, like Gecko) CriOS/124.0.6367.88 Mobile/15E148 Safari/604.1",,1681,980,100.0,100.0,-25.0,-200.0,118033.0,B,758.0,118791.0,16.0,0.0,1.0,2475.0,100.0,
0,1234,-999999,0,0,IowaTask-v2.0,-mobile,jspsych-0.3a-mobile,1,List1,2024-04-29,0,0,projectseed-iowa-production,0.0-0.0-2.0-0.16,eng,6e64b31c6348ac9d094febdaa4fdb26e97e83af1,True,adolescent,1074.0,844,390,844,390,5be94074-db34-43bf-a653-836de720ecc0,5be94074-db34-43bf-a653-836de720ecc0,projectseed_production_april2024,4,,120715,66,html-button-response,"Mozilla/5.0 (iPhone; CPU iPhone OS 17_4 like Mac OS X) AppleWebKit/605.1.15 (KHTML, like Gecko) CriOS/124.0.6367.88 Mobile/15E148 Safari/604.1",,1681,980,100.0,100.0,-25.0,-200.0,120100.0,A,1074.0,121174.0,17.0,0.0,0.0,2575.0,100.0,
0,1234,-999999,0,0,IowaTask-v2.0,-mobile,jspsych-0.3a-mobile,1,List1,2024-04-29,0,0,projectseed-iowa-production,0.0-0.0-2.0-0.17,eng,6e64b31c6348ac9d094febdaa4fdb26e97e83af1,True,adolescent,889.0,844,390,844,390,5be94074-db34-43bf-a653-836de720ecc0,5be94074-db34-43bf-a653-836de720ecc0,projectseed_production_april2024,4,,122912,70,html-button-response,"Mozilla/5.0 (iPhone; CPU iPhone OS 17_4 like Mac OS X) AppleWebKit/605.1.15 (KHTML, like Gecko) CriOS/124.0.6367.88 Mobile/15E148 Safari/604.1",,1681,980,-100.0,100.0,-25.0,-200.0,122482.00000000001,D,889.0,123371.00000000001,18.0,-250.0,3.0,2375.0,-200.0,
0,1234,-999999,0,0,IowaTask-v2.0,-mobile,jspsych-0.3a-mobile,1,List1,2024-04-29,0,0,projectseed-iowa-production,0.0-0.0-2.0-0.18,eng,6e64b31c6348ac9d094febdaa4fdb26e97e83af1,True,adolescent,646.0,844,390,844,390,5be94074-db34-43bf-a653-836de720ecc0,5be94074-db34-43bf-a653-836de720ecc0,projectseed_production_april2024,4,,125869,74,html-button-response,"Mozilla/5.0 (iPhone; CPU iPhone OS 17_4 like Mac OS X) AppleWebKit/605.1.15 (KHTML, like Gecko) CriOS/124.0.6367.88 Mobile/15E148 Safari/604.1",,1681,980,-100.0,100.0,-25.0,50.0,125682.0,C,646.0,126328.0,19.0,-75.0,2.0,2350.0,-25.0,
0,1234,-999999,0,0,IowaTask-v2.0,-mobile,jspsych-0.3a-mobile,1,List1,2024-04-29,0,0,projectseed-iowa-production,0.0-0.0-2.0-0.19,eng,6e64b31c6348ac9d094febdaa4fdb26e97e83af1,True,adolescent,410.0,844,390,844,390,5be94074-db34-43bf-a653-836de720ecc0,5be94074-db34-43bf-a653-836de720ecc0,projectseed_production_april2024,4,,128590,78,html-button-response,"Mozilla/5.0 (iPhone; CPU iPhone OS 17_4 like Mac OS X) AppleWebKit/605.1.15 (KHTML, like Gecko) CriOS/124.0.6367.88 Mobile/15E148 Safari/604.1",,1681,980,-100.0,100.0,50.0,50.0,128639.0,C,410.0,129049.0,20.0,0.0,2.0,2400.0,50.0,
0,1234,-999999,0,0,IowaTask-v2.0,-mobile,jspsych-0.3a-mobile,1,List1,2024-04-29,0,0,projectseed-iowa-production,0.0-0.0-2.0-0.20,eng,6e64b31c6348ac9d094febdaa4fdb26e97e83af1,True,adolescent,1066.0,844,390,844,390,5be94074-db34-43bf-a653-836de720ecc0,5be94074-db34-43bf-a653-836de720ecc0,projectseed_production_april2024,4,,130970,82,html-button-response,"Mozilla/5.0 (iPhone; CPU iPhone OS 17_4 like Mac OS X) AppleWebKit/605.1.15 (KHTML, like Gecko) CriOS/124.0.6367.88 Mobile/15E148 Safari/604.1",,1681,980,-100.0,100.0,50.0,50.0,130363.0,A,1066.0,131429.0,21.0,-200.0,0.0,2300.0,-100.0,
0,1234,-999999,0,0,IowaTask-v2.0,-mobile,jspsych-0.3a-mobile,1,List1,2024-04-29,0,0,projectseed-iowa-production,0.0-0.0-2.0-0.21,eng,6e64b31c6348ac9d094febdaa4fdb26e97e83af1,True,adolescent,480.0,844,390,844,390,5be94074-db34-43bf-a653-836de720ecc0,5be94074-db34-43bf-a653-836de720ecc0,projectseed_production_april2024,4,,133761,86,html-button-response,"Mozilla/5.0 (iPhone; CPU iPhone OS 17_4 like Mac OS X) AppleWebKit/605.1.15 (KHTML, like Gecko) CriOS/124.0.6367.88 Mobile/15E148 Safari/604.1",,1681,980,100.0,100.0,50.0,50.0,133740.0,B,480.0,134220.0,22.0,0.0,1.0,2400.0,100.0,
0,1234,-999999,0,0,IowaTask-v2.0,-mobile,jspsych-0.3a-mobile,1,List1,2024-04-29,0,0,projectseed-iowa-production,0.0-0.0-2.0-0.22,eng,6e64b31c6348ac9d094febdaa4fdb26e97e83af1,True,adolescent,576.0,844,390,844,390,5be94074-db34-43bf-a653-836de720ecc0,5be94074-db34-43bf-a653-836de720ecc0,projectseed_production_april2024,4,,135647,90,html-button-response,"Mozilla/5.0 (iPhone; CPU iPhone OS 17_4 like Mac OS X) AppleWebKit/605.1.15 (KHTML, like Gecko) CriOS/124.0.6367.88 Mobile/15E148 Safari/604.1",,1681,980,100.0,100.0,50.0,50.0,135530.0,B,576.0,136106.0,23.0,0.0,1.0,2500.0,100.0,
0,1234,-999999,0,0,IowaTask-v2.0,-mobile,jspsych-0.3a-mobile,1,List1,2024-04-29,0,0,projectseed-iowa-production,0.0-0.0-2.0-0.23,eng,6e64b31c6348ac9d094febdaa4fdb26e97e83af1,True,adolescent,1080.0,844,390,844,390,5be94074-db34-43bf-a653-836de720ecc0,5be94074-db34-43bf-a653-836de720ecc0,projectseed_production_april2024,4,,138046,94,html-button-response,"Mozilla/5.0 (iPhone; CPU iPhone OS 17_4 like Mac OS X) AppleWebKit/605.1.15 (KHTML, like Gecko) CriOS/124.0.6367.88 Mobile/15E148 Safari/604.1",,1681,980,100.0,-1150.0,50.0,50.0,137425.0,B,1080.0,138505.0,24.0,-1250.0,1.0,1350.0,-1150.0,
0,1234,-999999,0,0,IowaTask-v2.0,-mobile,jspsych-0.3a-mobile,1,List1,2024-04-29,0,0,projectseed-iowa-production,0.0-0.0-2.0-0.24,eng,6e64b31c6348ac9d094febdaa4fdb26e97e83af1,True,adolescent,1411.0,844,390,844,390,5be94074-db34-43bf-a653-836de720ecc0,5be94074-db34-43bf-a653-836de720ecc0,projectseed_production_april2024,4,,141768,98,html-button-response,"Mozilla/5.0 (iPhone; CPU iPhone OS 17_4 like Mac OS X) AppleWebKit/605.1.15 (KHTML, like Gecko) CriOS/124.0.6367.88 Mobile/15E148 Safari/604.1",,1681,980,100.0,100.0,50.0,50.0,140817.0,D,1411.0,142228.0,25.0,0.0,3.0,1400.0,50.0,
0,1234,-999999,0,0,IowaTask-v2.0,-mobile,jspsych-0.3a-mobile,1,List1,2024-04-29,0,0,projectseed-iowa-production,0.0-0.0-2.0-0.25,eng,6e64b31c6348ac9d094febdaa4fdb26e97e83af1,True,adolescent,606.0,844,390,844,390,5be94074-db34-43bf-a653-836de720ecc0,5be94074-db34-43bf-a653-836de720ecc0,projectseed_production_april2024,4,,143686,102,html-button-response,"Mozilla/5.0 (iPhone; CPU iPhone OS 17_4 like Mac OS X) AppleWebKit/605.1.15 (KHTML, like Gecko) CriOS/124.0.6367.88 Mobile/15E148 Safari/604.1",,1681,980,100.0,100.0,50.0,50.0,143539.0,C,606.0,144145.0,26.0,0.0,2.0,1450.0,50.0,
0,1234,-999999,0,0,IowaTask-v2.0,-mobile,jspsych-0.3a-mobile,1,List1,2024-04-29,0,0,projectseed-iowa-production,0.0-0.0-2.0-0.26,eng,6e64b31c6348ac9d094febdaa4fdb26e97e83af1,True,adolescent,608.0,844,390,844,390,5be94074-db34-43bf-a653-836de720ecc0,5be94074-db34-43bf-a653-836de720ecc0,projectseed_production_april2024,4,,145604,106,html-button-response,"Mozilla/5.0 (iPhone; CPU iPhone OS 17_4 like Mac OS X) AppleWebKit/605.1.15 (KHTML, like Gecko) CriOS/124.0.6367.88 Mobile/15E148 Safari/604.1",,1681,980,100.0,100.0,25.0,50.0,145455.00000000003,C,608.0,146063.00000000003,27.0,-25.0,2.0,1475.0,25.0,
0,1234,-999999,0,0,IowaTask-v2.0,-mobile,jspsych-0.3a-mobile,1,List1,2024-04-29,0,0,projectseed-iowa-production,0.0-0.0-2.0-0.27,eng,6e64b31c6348ac9d094febdaa4fdb26e97e83af1,True,adolescent,654.0,844,390,844,390,5be94074-db34-43bf-a653-836de720ecc0,5be94074-db34-43bf-a653-836de720ecc0,projectseed_production_april2024,4,,148573,110,html-button-response,"Mozilla/5.0 (iPhone; CPU iPhone OS 17_4 like Mac OS X) AppleWebKit/605.1.15 (KHTML, like Gecko) CriOS/124.0.6367.88 Mobile/15E148 Safari/604.1",,1681,980,100.0,100.0,25.0,50.0,148378.0,D,654.0,149032.0,28.0,0.0,3.0,1525.0,50.0,
0,1234,-999999,0,0,IowaTask-v2.0,-mobile,jspsych-0.3a-mobile,1,List1,2024-04-29,0,0,projectseed-iowa-production,0.0-0.0-2.0-0.28,eng,6e64b31c6348ac9d094febdaa4fdb26e97e83af1,True,adolescent,826.0,844,390,844,390,5be94074-db34-43bf-a653-836de720ecc0,5be94074-db34-43bf-a653-836de720ecc0,projectseed_production_april2024,4,,150711,114,html-button-response,"Mozilla/5.0 (iPhone; CPU iPhone OS 17_4 like Mac OS X) AppleWebKit/605.1.15 (KHTML, like Gecko) CriOS/124.0.6367.88 Mobile/15E148 Safari/604.1",,1681,980,100.0,100.0,25.0,50.0,150344.00000000003,A,826.0,151170.00000000003,29.0,0.0,0.0,1625.0,100.0,
0,1234,-999999,0,0,IowaTask-v2.0,-mobile,jspsych-0.3a-mobile,1,List1,2024-04-29,0,0,projectseed-iowa-production,0.0-0.0-2.0-0.29,eng,6e64b31c6348ac9d094febdaa4fdb26e97e83af1,True,adolescent,1607.0,844,390,844,390,5be94074-db34-43bf-a653-836de720ecc0,5be94074-db34-43bf-a653-836de720ecc0,projectseed_production_april2024,4,,153628,118,html-button-response,"Mozilla/5.0 (iPhone; CPU iPhone OS 17_4 like Mac OS X) AppleWebKit/605.1.15 (KHTML, like Gecko) CriOS/124.0.6367.88 Mobile/15E148 Safari/604.1",,1681,980,-150.0,100.0,25.0,50.0,152480.0,C,1607.0,154087.0,30.0,-25.0,2.0,1650.0,25.0,
0,1234,-999999,0,0,IowaTask-v2.0,-mobile,jspsych-0.3a-mobile,1,List1,2024-04-29,0,0,projectseed-iowa-production,0.0-0.0-2.0-0.30,eng,6e64b31c6348ac9d094febdaa4fdb26e97e83af1,True,adolescent,541.0,844,390,844,390,5be94074-db34-43bf-a653-836de720ecc0,5be94074-db34-43bf-a653-836de720ecc0,projectseed_production_april2024,4,,156479,122,html-button-response,"Mozilla/5.0 (iPhone; CPU iPhone OS 17_4 like Mac OS X) AppleWebKit/605.1.15 (KHTML, like Gecko) CriOS/124.0.6367.88 Mobile/15E148 Safari/604.1",,1681,980,-150.0,100.0,50.0,50.0,156397.00000000003,B,541.0,156938.00000000003,31.0,0.0,1.0,1750.0,100.0,
0,1234,-999999,0,0,IowaTask-v2.0,-mobile,jspsych-0.3a-mobile,1,List1,2024-04-29,0,0,projectseed-iowa-production,0.0-0.0-2.0-0.31,eng,6e64b31c6348ac9d094febdaa4fdb26e97e83af1,True,adolescent,1055.0,844,390,844,390,5be94074-db34-43bf-a653-836de720ecc0,5be94074-db34-43bf-a653-836de720ecc0,projectseed_production_april2024,4,,158846,126,html-button-response,"Mozilla/5.0 (iPhone; CPU iPhone OS 17_4 like Mac OS X) AppleWebKit/605.1.15 (KHTML, like Gecko) CriOS/124.0.6367.88 Mobile/15E148 Safari/604.1",,1681,980,-150.0,100.0,50.0,50.0,158250.0,B,1055.0,159305.0,32.0,0.0,1.0,1850.0,100.0,
0,1234,-999999,0,0,IowaTask-v2.0,-mobile,jspsych-0.3a-mobile,1,List1,2024-04-29,0,0,projectseed-iowa-production,0.0-0.0-2.0-0.32,eng,6e64b31c6348ac9d094febdaa4fdb26e97e83af1,True,adolescent,1042.0,844,390,844,390,5be94074-db34-43bf-a653-836de720ecc0,5be94074-db34-43bf-a653-836de720ecc0,projectseed_production_april2024,4,,161198,130,html-button-response,"Mozilla/5.0 (iPhone; CPU iPhone OS 17_4 like Mac OS X) AppleWebKit/605.1.15 (KHTML, like Gecko) CriOS/124.0.6367.88 Mobile/15E148 Safari/604.1",,1681,980,-150.0,100.0,50.0,50.0,160616.00000000003,A,1042.0,161658.00000000003,33.0,-250.0,0.0,1700.0,-150.0,
0,1234,-999999,0,0,IowaTask-v2.0,-mobile,jspsych-0.3a-mobile,1,List1,2024-04-29,0,0,projectseed-iowa-production,0.0-0.0-2.0-0.33,eng,6e64b31c6348ac9d094febdaa4fdb26e97e83af1,True,adolescent,492.0,844,390,844,390,5be94074-db34-43bf-a653-836de720ecc0,5be94074-db34-43bf-a653-836de720ecc0,projectseed_production_april2024,4,,164001,134,html-button-response,"Mozilla/5.0 (iPhone; CPU iPhone OS 17_4 like Mac OS X) AppleWebKit/605.1.15 (KHTML, like Gecko) CriOS/124.0.6367.88 Mobile/15E148 Safari/604.1",,1681,980,100.0,100.0,50.0,50.0,163968.0,C,492.0,164460.0,34.0,0.0,2.0,1750.0,50.0,
0,1234,-999999,0,0,IowaTask-v2.0,-mobile,jspsych-0.3a-mobile,1,List1,2024-04-29,0,0,projectseed-iowa-production,0.0-0.0-2.0-0.34,eng,6e64b31c6348ac9d094febdaa4fdb26e97e83af1,True,adolescent,1090.0,844,390,844,390,5be94074-db34-43bf-a653-836de720ecc0,5be94074-db34-43bf-a653-836de720ecc0,projectseed_production_april2024,4,,166403,138,html-button-response,"Mozilla/5.0 (iPhone; CPU iPhone OS 17_4 like Mac OS X) AppleWebKit/605.1.15 (KHTML, like Gecko) CriOS/124.0.6367.88 Mobile/15E148 Safari/604.1",,1681,980,100.0,100.0,50.0,50.0,165772.0,D,1090.0,166862.0,35.0,0.0,3.0,1800.0,50.0,
0,1234,-999999,0,0,IowaTask-v2.0,-mobile,jspsych-0.3a-mobile,1,List1,2024-04-29,0,0,projectseed-iowa-production,0.0-0.0-2.0-0.35,eng,6e64b31c6348ac9d094febdaa4fdb26e97e83af1,True,adolescent,875.0,844,390,844,390,5be94074-db34-43bf-a653-836de720ecc0,5be94074-db34-43bf-a653-836de720ecc0,projectseed_production_april2024,4,,168588,142,html-button-response,"Mozilla/5.0 (iPhone; CPU iPhone OS 17_4 like Mac OS X) AppleWebKit/605.1.15 (KHTML, like Gecko) CriOS/124.0.6367.88 Mobile/15E148 Safari/604.1",,1681,980,100.0,100.0,50.0,50.0,168173.0,C,875.0,169048.0,36.0,0.0,2.0,1850.0,50.0,
0,1234,-999999,0,0,IowaTask-v2.0,-mobile,jspsych-0.3a-mobile,1,List1,2024-04-29,0,0,projectseed-iowa-production,0.0-0.0-2.0-0.36,eng,6e64b31c6348ac9d094febdaa4fdb26e97e83af1,True,adolescent,720.0,844,390,844,390,5be94074-db34-43bf-a653-836de720ecc0,5be94074-db34-43bf-a653-836de720ecc0,projectseed_production_april2024,4,,170624,146,html-button-response,"Mozilla/5.0 (iPhone; CPU iPhone OS 17_4 like Mac OS X) AppleWebKit/605.1.15 (KHTML, like Gecko) CriOS/124.0.6367.88 Mobile/15E148 Safari/604.1",,1681,980,100.0,100.0,50.0,50.0,170363.0,B,720.0,171083.0,37.0,0.0,1.0,1950.0,100.0,
0,1234,-999999,0,0,IowaTask-v2.0,-mobile,jspsych-0.3a-mobile,1,List1,2024-04-29,0,0,projectseed-iowa-production,0.0-0.0-2.0-0.37,eng,6e64b31c6348ac9d094febdaa4fdb26e97e83af1,True,adolescent,1375.0,844,390,844,390,5be94074-db34-43bf-a653-836de720ecc0,5be94074-db34-43bf-a653-836de720ecc0,projectseed_production_april2024,4,,173309,150,html-button-response,"Mozilla/5.0 (iPhone; CPU iPhone OS 17_4 like Mac OS X) AppleWebKit/605.1.15 (KHTML, like Gecko) CriOS/124.0.6367.88 Mobile/15E148 Safari/604.1",,1681,980,100.0,100.0,50.0,50.0,172393.0,A,1375.0,173768.0,38.0,0.0,0.0,2050.0,100.0,
0,1234,-999999,0,0,IowaTask-v2.0,-mobile,jspsych-0.3a-mobile,1,List1,2024-04-29,0,0,projectseed-iowa-production,0.0-0.0-2.0-0.38,eng,6e64b31c6348ac9d094febdaa4fdb26e97e83af1,True,adolescent,860.0,844,390,844,390,5be94074-db34-43bf-a653-836de720ecc0,5be94074-db34-43bf-a653-836de720ecc0,projectseed_production_april2024,4,,175479,154,html-button-response,"Mozilla/5.0 (iPhone; CPU iPhone OS 17_4 like Mac OS X) AppleWebKit/605.1.15 (KHTML, like Gecko) CriOS/124.0.6367.88 Mobile/15E148 Safari/604.1",,1681,980,100.0,100.0,50.0,50.0,175078.00000000003,D,860.0,175938.00000000003,39.0,0.0,3.0,2100.0,50.0,
0,1234,-999999,0,0,IowaTask-v2.0,-mobile,jspsych-0.3a-mobile,1,List1,2024-04-29,0,0,projectseed-iowa-production,0.0-0.0-2.0-0.39,eng,6e64b31c6348ac9d094febdaa4fdb26e97e83af1,True,adolescent,1043.0,844,390,844,390,5be94074-db34-43bf-a653-836de720ecc0,5be94074-db34-43bf-a653-836de720ecc0,projectseed_production_april2024,4,,177833,158,html-button-response,"Mozilla/5.0 (iPhone; CPU iPhone OS 17_4 like Mac OS X) AppleWebKit/605.1.15 (KHTML, like Gecko) CriOS/124.0.6367.88 Mobile/15E148 Safari/604.1",,1681,980,100.0,100.0,50.0,50.0,177251.0,A,1043.0,178294.0,40.0,0.0,0.0,2200.0,100.0,
0,1234,-999999,0,0,IowaTask-v2.0,-mobile,jspsych-0.3a-mobile,1,List1,2024-04-29,0,0,projectseed-iowa-production,0.0-0.0-2.0-0.40,eng,6e64b31c6348ac9d094febdaa4fdb26e97e83af1,True,adolescent,735.0,844,390,844,390,5be94074-db34-43bf-a653-836de720ecc0,5be94074-db34-43bf-a653-836de720ecc0,projectseed_production_april2024,4,,179883,162,html-button-response,"Mozilla/5.0 (iPhone; CPU iPhone OS 17_4 like Mac OS X) AppleWebKit/605.1.15 (KHTML, like Gecko) CriOS/124.0.6367.88 Mobile/15E148 Safari/604.1",,1681,980,-50.0,100.0,50.0,50.0,179608.00000000003,C,735.0,180343.00000000003,41.0,0.0,2.0,2250.0,50.0,
0,1234,-999999,0,0,IowaTask-v2.0,-mobile,jspsych-0.3a-mobile,1,List1,2024-04-29,0,0,projectseed-iowa-production,0.0-0.0-2.0-0.41,eng,6e64b31c6348ac9d094febdaa4fdb26e97e83af1,True,adolescent,654.0,844,390,844,390,5be94074-db34-43bf-a653-836de720ecc0,5be94074-db34-43bf-a653-836de720ecc0,projectseed_production_april2024,4,,181850,166,html-button-response,"Mozilla/5.0 (iPhone; CPU iPhone OS 17_4 like Mac OS X) AppleWebKit/605.1.15 (KHTML, like Gecko) CriOS/124.0.6367.88 Mobile/15E148 Safari/604.1",,1681,980,-50.0,100.0,-25.0,50.0,181655.0,B,654.0,182309.0,42.0,0.0,1.0,2350.0,100.0,
0,1234,-999999,0,0,IowaTask-v2.0,-mobile,jspsych-0.3a-mobile,1,List1,2024-04-29,0,0,projectseed-iowa-production,0.0-0.0-2.0-0.42,eng,6e64b31c6348ac9d094febdaa4fdb26e97e83af1,True,adolescent,1677.0,844,390,844,390,5be94074-db34-43bf-a653-836de720ecc0,5be94074-db34-43bf-a653-836de720ecc0,projectseed_production_april2024,4,,184839,170,html-button-response,"Mozilla/5.0 (iPhone; CPU iPhone OS 17_4 like Mac OS X) AppleWebKit/605.1.15 (KHTML, like Gecko) CriOS/124.0.6367.88 Mobile/15E148 Safari/604.1",,1681,980,-50.0,100.0,-25.0,50.0,183622.0,D,1677.0,185299.0,43.0,0.0,3.0,2400.0,50.0,
0,1234,-999999,0,0,IowaTask-v2.0,-mobile,jspsych-0.3a-mobile,1,List1,2024-04-29,0,0,projectseed-iowa-production,0.0-0.0-2.0-0.43,eng,6e64b31c6348ac9d094febdaa4fdb26e97e83af1,True,adolescent,670.0,844,390,844,390,5be94074-db34-43bf-a653-836de720ecc0,5be94074-db34-43bf-a653-836de720ecc0,projectseed_production_april2024,4,,186820,174,html-button-response,"Mozilla/5.0 (iPhone; CPU iPhone OS 17_4 like Mac OS X) AppleWebKit/605.1.15 (KHTML, like Gecko) CriOS/124.0.6367.88 Mobile/15E148 Safari/604.1",,1681,980,-50.0,100.0,-25.0,50.0,186610.0,A,670.0,187280.0,44.0,-150.0,0.0,2350.0,-50.0,
0,1234,-999999,0,0,IowaTask-v2.0,-mobile,jspsych-0.3a-mobile,1,List1,2024-04-29,0,0,projectseed-iowa-production,0.0-0.0-2.0-0.44,eng,6e64b31c6348ac9d094febdaa4fdb26e97e83af1,True,adolescent,524.0,844,390,844,390,5be94074-db34-43bf-a653-836de720ecc0,5be94074-db34-43bf-a653-836de720ecc0,projectseed_production_april2024,4,,189655,178,html-button-response,"Mozilla/5.0 (iPhone; CPU iPhone OS 17_4 like Mac OS X) AppleWebKit/605.1.15 (KHTML, like Gecko) CriOS/124.0.6367.88 Mobile/15E148 Safari/604.1",,1681,980,-200.0,100.0,-25.0,50.0,189591.0,C,524.0,190115.0,45.0,-75.0,2.0,2325.0,-25.0,
0,1234,-999999,0,0,IowaTask-v2.0,-mobile,jspsych-0.3a-mobile,1,List1,2024-04-29,0,0,projectseed-iowa-production,0.0-0.0-2.0-0.45,eng,6e64b31c6348ac9d094febdaa4fdb26e97e83af1,True,adolescent,708.0,844,390,844,390,5be94074-db34-43bf-a653-836de720ecc0,5be94074-db34-43bf-a653-836de720ecc0,projectseed_production_april2024,4,,192674,182,html-button-response,"Mozilla/5.0 (iPhone; CPU iPhone OS 17_4 like Mac OS X) AppleWebKit/605.1.15 (KHTML, like Gecko) CriOS/124.0.6367.88 Mobile/15E148 Safari/604.1",,1681,980,-200.0,100.0,-25.0,50.0,192425.0,B,708.0,193133.0,46.0,0.0,1.0,2425.0,100.0,
0,1234,-999999,0,0,IowaTask-v2.0,-mobile,jspsych-0.3a-mobile,1,List1,2024-04-29,0,0,projectseed-iowa-production,0.0-0.0-2.0-0.46,eng,6e64b31c6348ac9d094febdaa4fdb26e97e83af1,True,adolescent,891.0,844,390,844,390,5be94074-db34-43bf-a653-836de720ecc0,5be94074-db34-43bf-a653-836de720ecc0,projectseed_production_april2024,4,,194875,186,html-button-response,"Mozilla/5.0 (iPhone; CPU iPhone OS 17_4 like Mac OS X) AppleWebKit/605.1.15 (KHTML, like Gecko) CriOS/124.0.6367.88 Mobile/15E148 Safari/604.1",,1681,980,-200.0,100.0,-25.0,50.0,194444.0,A,891.0,195335.0,47.0,-300.0,0.0,2225.0,-200.0,
0,1234,-999999,0,0,IowaTask-v2.0,-mobile,jspsych-0.3a-mobile,1,List1,2024-04-29,0,0,projectseed-iowa-production,0.0-0.0-2.0-0.47,eng,6e64b31c6348ac9d094febdaa4fdb26e97e83af1,True,adolescent,72.0,844,390,844,390,5be94074-db34-43bf-a653-836de720ecc0,5be94074-db34-43bf-a653-836de720ecc0,projectseed_production_april2024,4,,197259,190,html-button-response,"Mozilla/5.0 (iPhone; CPU iPhone OS 17_4 like Mac OS X) AppleWebKit/605.1.15 (KHTML, like Gecko) CriOS/124.0.6367.88 Mobile/15E148 Safari/604.1",,1681,980,100.0,100.0,-25.0,50.0,197646.00000000003,D,72.0,197718.00000000003,48.0,0.0,3.0,2275.0,50.0,
0,1234,-999999,0,0,IowaTask-v2.0,-mobile,jspsych-0.3a-mobile,1,List1,2024-04-29,0,0,projectseed-iowa-production,0.0-0.0-2.0-0.48,eng,6e64b31c6348ac9d094febdaa4fdb26e97e83af1,True,adolescent,823.0,844,390,844,390,5be94074-db34-43bf-a653-836de720ecc0,5be94074-db34-43bf-a653-836de720ecc0,projectseed_production_april2024,4,,199394,194,html-button-response,"Mozilla/5.0 (iPhone; CPU iPhone OS 17_4 like Mac OS X) AppleWebKit/605.1.15 (KHTML, like Gecko) CriOS/124.0.6367.88 Mobile/15E148 Safari/604.1",,1681,980,100.0,100.0,-25.0,50.0,199031.0,C,823.0,199854.0,49.0,-75.0,2.0,2250.0,-25.0,
0,1234,-999999,0,0,IowaTask-v2.0,-mobile,jspsych-0.3a-mobile,1,List1,2024-04-29,0,0,projectseed-iowa-production,0.0-0.0-2.0-0.49,eng,6e64b31c6348ac9d094febdaa4fdb26e97e83af1,True,adolescent,490.0,844,390,844,390,5be94074-db34-43bf-a653-836de720ecc0,5be94074-db34-43bf-a653-836de720ecc0,projectseed_production_april2024,4,,202198,198,html-button-response,"Mozilla/5.0 (iPhone; CPU iPhone OS 17_4 like Mac OS X) AppleWebKit/605.1.15 (KHTML, like Gecko) CriOS/124.0.6367.88 Mobile/15E148 Safari/604.1",,1681,980,100.0,100.0,50.0,50.0,202168.00000000003,B,490.0,202658.00000000003,50.0,0.0,1.0,2350.0,100.0,
0,1234,-999999,0,0,IowaTask-v2.0,-mobile,jspsych-0.3a-mobile,1,List1,2024-04-29,0,0,projectseed-iowa-production,0.0-0.0-2.0-0.50,eng,6e64b31c6348ac9d094febdaa4fdb26e97e83af1,True,adolescent,921.0,844,390,844,390,5be94074-db34-43bf-a653-836de720ecc0,5be94074-db34-43bf-a653-836de720ecc0,projectseed_production_april2024,4,,204431,202,html-button-response,"Mozilla/5.0 (iPhone; CPU iPhone OS 17_4 like Mac OS X) AppleWebKit/605.1.15 (KHTML, like Gecko) CriOS/124.0.6367.88 Mobile/15E148 Safari/604.1",,1681,980,100.0,-1150.0,50.0,50.0,203969.00000000003,A,921.0,204890.00000000003,51.0,0.0,0.0,2450.0,100.0,
0,1234,-999999,0,0,IowaTask-v2.0,-mobile,jspsych-0.3a-mobile,1,List1,2024-04-29,0,0,projectseed-iowa-production,0.0-0.0-2.0-0.51,eng,6e64b31c6348ac9d094febdaa4fdb26e97e83af1,True,adolescent,773.0,844,390,844,390,5be94074-db34-43bf-a653-836de720ecc0,5be94074-db34-43bf-a653-836de720ecc0,projectseed_production_april2024,4,,206515,206,html-button-response,"Mozilla/5.0 (iPhone; CPU iPhone OS 17_4 like Mac OS X) AppleWebKit/605.1.15 (KHTML, like Gecko) CriOS/124.0.6367.88 Mobile/15E148 Safari/604.1",,1681,980,100.0,-1150.0,50.0,50.0,206202.0,B,773.0,206975.0,52.0,-1250.0,1.0,1300.0,-1150.0,
0,1234,-999999,0,0,IowaTask-v2.0,-mobile,jspsych-0.3a-mobile,1,List1,2024-04-29,0,0,projectseed-iowa-production,0.0-0.0-2.0-0.52,eng,6e64b31c6348ac9d094febdaa4fdb26e97e83af1,True,adolescent,1192.0,844,390,844,390,5be94074-db34-43bf-a653-836de720ecc0,5be94074-db34-43bf-a653-836de720ecc0,projectseed_production_april2024,4,,210022,210,html-button-response,"Mozilla/5.0 (iPhone; CPU iPhone OS 17_4 like Mac OS X) AppleWebKit/605.1.15 (KHTML, like Gecko) CriOS/124.0.6367.88 Mobile/15E148 Safari/604.1",,1681,980,100.0,100.0,50.0,50.0,209289.0,D,1192.0,210481.0,53.0,0.0,3.0,1350.0,50.0,
0,1234,-999999,0,0,IowaTask-v2.0,-mobile,jspsych-0.3a-mobile,1,List1,2024-04-29,0,0,projectseed-iowa-production,0.0-0.0-2.0-0.53,eng,6e64b31c6348ac9d094febdaa4fdb26e97e83af1,True,adolescent,656.0,844,390,844,390,5be94074-db34-43bf-a653-836de720ecc0,5be94074-db34-43bf-a653-836de720ecc0,projectseed_production_april2024,4,,211989,214,html-button-response,"Mozilla/5.0 (iPhone; CPU iPhone OS 17_4 like Mac OS X) AppleWebKit/605.1.15 (KHTML, like Gecko) CriOS/124.0.6367.88 Mobile/15E148 Safari/604.1",,1681,980,100.0,100.0,50.0,50.0,211793.0,C,656.0,212449.0,54.0,0.0,2.0,1400.0,50.0,
0,1234,-999999,0,0,IowaTask-v2.0,-mobile,jspsych-0.3a-mobile,1,List1,2024-04-29,0,0,projectseed-iowa-production,0.0-0.0-2.0-0.54,eng,6e64b31c6348ac9d094febdaa4fdb26e97e83af1,True,adolescent,822.0,844,390,844,390,5be94074-db34-43bf-a653-836de720ecc0,5be94074-db34-43bf-a653-836de720ecc0,projectseed_production_april2024,4,,214123,218,html-button-response,"Mozilla/5.0 (iPhone; CPU iPhone OS 17_4 like Mac OS X) AppleWebKit/605.1.15 (KHTML, like Gecko) CriOS/124.0.6367.88 Mobile/15E148 Safari/604.1",,1681,980,100.0,100.0,50.0,50.0,213761.0,A,822.0,214583.0,55.0,0.0,0.0,1500.0,100.0,
0,1234,-999999,0,0,IowaTask-v2.0,-mobile,jspsych-0.3a-mobile,1,List1,2024-04-29,0,0,projectseed-iowa-production,0.0-0.0-2.0-0.55,eng,6e64b31c6348ac9d094febdaa4fdb26e97e83af1,True,adolescent,538.0,844,390,844,390,5be94074-db34-43bf-a653-836de720ecc0,5be94074-db34-43bf-a653-836de720ecc0,projectseed_production_april2024,4,,215977,222,html-button-response,"Mozilla/5.0 (iPhone; CPU iPhone OS 17_4 like Mac OS X) AppleWebKit/605.1.15 (KHTML, like Gecko) CriOS/124.0.6367.88 Mobile/15E148 Safari/604.1",,1681,980,100.0,100.0,50.0,50.0,215899.0,B,538.0,216437.0,56.0,0.0,1.0,1600.0,100.0,
0,1234,-999999,0,0,IowaTask-v2.0,-mobile,jspsych-0.3a-mobile,1,List1,2024-04-29,0,0,projectseed-iowa-production,0.0-0.0-2.0-0.56,eng,6e64b31c6348ac9d094febdaa4fdb26e97e83af1,True,adolescent,788.0,844,390,844,390,5be94074-db34-43bf-a653-836de720ecc0,5be94074-db34-43bf-a653-836de720ecc0,projectseed_production_april2024,4,,218078,226,html-button-response,"Mozilla/5.0 (iPhone; CPU iPhone OS 17_4 like Mac OS X) AppleWebKit/605.1.15 (KHTML, like Gecko) CriOS/124.0.6367.88 Mobile/15E148 Safari/604.1",,1681,980,100.0,100.0,50.0,50.0,217750.0,C,788.0,218538.0,57.0,0.0,2.0,1650.0,50.0,
0,1234,-999999,0,0,IowaTask-v2.0,-mobile,jspsych-0.3a-mobile,1,List1,2024-04-29,0,0,projectseed-iowa-production,0.0-0.0-2.0-0.57,eng,6e64b31c6348ac9d094febdaa4fdb26e97e83af1,True,adolescent,1173.0,844,390,844,390,5be94074-db34-43bf-a653-836de720ecc0,5be94074-db34-43bf-a653-836de720ecc0,projectseed_production_april2024,4,,220564,230,html-button-response,"Mozilla/5.0 (iPhone; CPU iPhone OS 17_4 like Mac OS X) AppleWebKit/605.1.15 (KHTML, like Gecko) CriOS/124.0.6367.88 Mobile/15E148 Safari/604.1",,1681,980,100.0,100.0,25.0,50.0,219851.0,B,1173.0,221024.0,58.0,0.0,1.0,1750.0,100.0,
0,1234,-999999,0,0,IowaTask-v2.0,-mobile,jspsych-0.3a-mobile,1,List1,2024-04-29,0,0,projectseed-iowa-production,0.0-0.0-2.0-0.58,eng,6e64b31c6348ac9d094febdaa4fdb26e97e83af1,True,adolescent,2276.0,844,390,844,390,5be94074-db34-43bf-a653-836de720ecc0,5be94074-db34-43bf-a653-836de720ecc0,projectseed_production_april2024,4,,224152,234,html-button-response,"Mozilla/5.0 (iPhone; CPU iPhone OS 17_4 like Mac OS X) AppleWebKit/605.1.15 (KHTML, like Gecko) CriOS/124.0.6367.88 Mobile/15E148 Safari/604.1",,1681,980,100.0,100.0,25.0,50.0,222335.00000000003,D,2276.0,224611.00000000003,59.0,0.0,3.0,1800.0,50.0,
0,1234,-999999,0,0,IowaTask-v2.0,-mobile,jspsych-0.3a-mobile,1,List1,2024-04-29,0,0,projectseed-iowa-production,0.0-0.0-2.0-0.59,eng,6e64b31c6348ac9d094febdaa4fdb26e97e83af1,True,adolescent,1018.0,844,390,844,390,5be94074-db34-43bf-a653-836de720ecc0,5be94074-db34-43bf-a653-836de720ecc0,projectseed_production_april2024,4,,226485,238,html-button-response,"Mozilla/5.0 (iPhone; CPU iPhone OS 17_4 like Mac OS X) AppleWebKit/605.1.15 (KHTML, like Gecko) CriOS/124.0.6367.88 Mobile/15E148 Safari/604.1",,1681,980,100.0,100.0,25.0,50.0,225927.0,A,1018.0,226945.0,60.0,0.0,0.0,1900.0,100.0,
0,1234,-999999,0,0,IowaTask-v2.0,-mobile,jspsych-0.3a-mobile,1,List1,2024-04-29,0,0,projectseed-iowa-production,0.0-0.0-2.0-0.60,eng,6e64b31c6348ac9d094febdaa4fdb26e97e83af1,True,adolescent,974.0,844,390,844,390,5be94074-db34-43bf-a653-836de720ecc0,5be94074-db34-43bf-a653-836de720ecc0,projectseed_production_april2024,4,,228771,242,html-button-response,"Mozilla/5.0 (iPhone; CPU iPhone OS 17_4 like Mac OS X) AppleWebKit/605.1.15 (KHTML, like Gecko) CriOS/124.0.6367.88 Mobile/15E148 Safari/604.1",,1681,980,-250.0,100.0,25.0,50.0,228256.00000000003,C,974.0,229230.00000000003,61.0,-25.0,2.0,1925.0,25.0,
0,1234,-999999,0,0,IowaTask-v2.0,-mobile,jspsych-0.3a-mobile,1,List1,2024-04-29,0,0,projectseed-iowa-production,0.0-0.0-2.0-0.61,eng,6e64b31c6348ac9d094febdaa4fdb26e97e83af1,True,adolescent,622.0,844,390,844,390,5be94074-db34-43bf-a653-836de720ecc0,5be94074-db34-43bf-a653-836de720ecc0,projectseed_production_april2024,4,,231703,246,html-button-response,"Mozilla/5.0 (iPhone; CPU iPhone OS 17_4 like Mac OS X) AppleWebKit/605.1.15 (KHTML, like Gecko) CriOS/124.0.6367.88 Mobile/15E148 Safari/604.1",,1681,980,-250.0,100.0,50.0,50.0,231541.0,B,622.0,232163.0,62.0,0.0,1.0,2025.0,100.0,
0,1234,-999999,0,0,IowaTask-v2.0,-mobile,jspsych-0.3a-mobile,1,List1,2024-04-29,0,0,projectseed-iowa-production,0.0-0.0-2.0-0.62,eng,6e64b31c6348ac9d094febdaa4fdb26e97e83af1,True,adolescent,761.0,844,390,844,390,5be94074-db34-43bf-a653-836de720ecc0,5be94074-db34-43bf-a653-836de720ecc0,projectseed_production_april2024,4,,233775,250,html-button-response,"Mozilla/5.0 (iPhone; CPU iPhone OS 17_4 like Mac OS X) AppleWebKit/605.1.15 (KHTML, like Gecko) CriOS/124.0.6367.88 Mobile/15E148 Safari/604.1",,1681,980,-250.0,100.0,50.0,50.0,233474.0,A,761.0,234235.0,63.0,-350.0,0.0,1775.0,-250.0,
0,1234,-999999,0,0,IowaTask-v2.0,-mobile,jspsych-0.3a-mobile,1,List1,2024-04-29,0,0,projectseed-iowa-production,0.0-0.0-2.0-0.63,eng,6e64b31c6348ac9d094febdaa4fdb26e97e83af1,True,adolescent,470.0,844,390,844,390,5be94074-db34-43bf-a653-836de720ecc0,5be94074-db34-43bf-a653-836de720ecc0,projectseed_production_april2024,4,,236560,254,html-button-response,"Mozilla/5.0 (iPhone; CPU iPhone OS 17_4 like Mac OS X) AppleWebKit/605.1.15 (KHTML, like Gecko) CriOS/124.0.6367.88 Mobile/15E148 Safari/604.1",,1681,980,-100.0,100.0,50.0,50.0,236550.0,D,470.0,237020.0,64.0,0.0,3.0,1825.0,50.0,
0,1234,-999999,0,0,IowaTask-v2.0,-mobile,jspsych-0.3a-mobile,1,List1,2024-04-29,0,0,projectseed-iowa-production,0.0-0.0-2.0-0.64,eng,6e64b31c6348ac9d094febdaa4fdb26e97e83af1,True,adolescent,707.0,844,390,844,390,5be94074-db34-43bf-a653-836de720ecc0,5be94074-db34-43bf-a653-836de720ecc0,projectseed_production_april2024,4,,238580,258,html-button-response,"Mozilla/5.0 (iPhone; CPU iPhone OS 17_4 like Mac OS X) AppleWebKit/605.1.15 (KHTML, like Gecko) CriOS/124.0.6367.88 Mobile/15E148 Safari/604.1",,1681,980,-100.0,100.0,50.0,-200.0,238333.0,C,707.0,239040.0,65.0,0.0,2.0,1875.0,50.0,
0,1234,-999999,0,0,IowaTask-v2.0,-mobile,jspsych-0.3a-mobile,1,List1,2024-04-29,0,0,projectseed-iowa-production,0.0-0.0-2.0-0.65,eng,6e64b31c6348ac9d094febdaa4fdb26e97e83af1,True,adolescent,674.0,844,390,844,390,5be94074-db34-43bf-a653-836de720ecc0,5be94074-db34-43bf-a653-836de720ecc0,projectseed_production_april2024,4,,240566,262,html-button-response,"Mozilla/5.0 (iPhone; CPU iPhone OS 17_4 like Mac OS X) AppleWebKit/605.1.15 (KHTML, like Gecko) CriOS/124.0.6367.88 Mobile/15E148 Safari/604.1",,1681,980,-100.0,100.0,0.0,-200.0,240352.0,B,674.0,241026.0,66.0,0.0,1.0,1975.0,100.0,
0,1234,-999999,0,0,IowaTask-v2.0,-mobile,jspsych-0.3a-mobile,1,List1,2024-04-29,0,0,projectseed-iowa-production,0.0-0.0-2.0-0.66,eng,6e64b31c6348ac9d094febdaa4fdb26e97e83af1,True,adolescent,725.0,844,390,844,390,5be94074-db34-43bf-a653-836de720ecc0,5be94074-db34-43bf-a653-836de720ecc0,projectseed_production_april2024,4,,242603,266,html-button-response,"Mozilla/5.0 (iPhone; CPU iPhone OS 17_4 like Mac OS X) AppleWebKit/605.1.15 (KHTML, like Gecko) CriOS/124.0.6367.88 Mobile/15E148 Safari/604.1",,1681,980,-100.0,-1150.0,0.0,-200.0,242338.00000000003,A,725.0,243063.00000000003,67.0,-200.0,0.0,1875.0,-100.0,
0,1234,-999999,0,0,IowaTask-v2.0,-mobile,jspsych-0.3a-mobile,1,List1,2024-04-29,0,0,projectseed-iowa-production,0.0-0.0-2.0-0.67,eng,6e64b31c6348ac9d094febdaa4fdb26e97e83af1,True,adolescent,116.0,844,390,844,390,5be94074-db34-43bf-a653-836de720ecc0,5be94074-db34-43bf-a653-836de720ecc0,projectseed_production_april2024,4,,245029,270,html-button-response,"Mozilla/5.0 (iPhone; CPU iPhone OS 17_4 like Mac OS X) AppleWebKit/605.1.15 (KHTML, like Gecko) CriOS/124.0.6367.88 Mobile/15E148 Safari/604.1",,1681,980,100.0,-1150.0,0.0,-200.0,245373.0,D,116.0,245489.0,68.0,-250.0,3.0,1675.0,-200.0,
0,1234,-999999,0,0,IowaTask-v2.0,-mobile,jspsych-0.3a-mobile,1,List1,2024-04-29,0,0,projectseed-iowa-production,0.0-0.0-2.0-0.68,eng,6e64b31c6348ac9d094febdaa4fdb26e97e83af1,True,adolescent,497.0,844,390,844,390,5be94074-db34-43bf-a653-836de720ecc0,5be94074-db34-43bf-a653-836de720ecc0,projectseed_production_april2024,4,,247838,274,html-button-response,"Mozilla/5.0 (iPhone; CPU iPhone OS 17_4 like Mac OS X) AppleWebKit/605.1.15 (KHTML, like Gecko) CriOS/124.0.6367.88 Mobile/15E148 Safari/604.1",,1681,980,100.0,-1150.0,0.0,50.0,247801.0,C,497.0,248298.0,69.0,-50.0,2.0,1675.0,0.0,
0,1234,-999999,0,0,IowaTask-v2.0,-mobile,jspsych-0.3a-mobile,1,List1,2024-04-29,0,0,projectseed-iowa-production,0.0-0.0-2.0-0.69,eng,6e64b31c6348ac9d094febdaa4fdb26e97e83af1,True,adolescent,1169.0,844,390,844,390,5be94074-db34-43bf-a653-836de720ecc0,5be94074-db34-43bf-a653-836de720ecc0,projectseed_production_april2024,4,,251318,278,html-button-response,"Mozilla/5.0 (iPhone; CPU iPhone OS 17_4 like Mac OS X) AppleWebKit/605.1.15 (KHTML, like Gecko) CriOS/124.0.6367.88 Mobile/15E148 Safari/604.1",,1681,980,100.0,-1150.0,50.0,50.0,250610.0,B,1169.0,251779.0,70.0,-1250.0,1.0,525.0,-1150.0,
0,1234,-999999,0,0,IowaTask-v2.0,-mobile,jspsych-0.3a-mobile,1,List1,2024-04-29,0,0,projectseed-iowa-production,0.0-0.0-2.0-0.70,eng,6e64b31c6348ac9d094febdaa4fdb26e97e83af1,True,adolescent,3531.0,844,390,844,390,5be94074-db34-43bf-a653-836de720ecc0,5be94074-db34-43bf-a653-836de720ecc0,projectseed_production_april2024,4,,257164,282,html-button-response,"Mozilla/5.0 (iPhone; CPU iPhone OS 17_4 like Mac OS X) AppleWebKit/605.1.15 (KHTML, like Gecko) CriOS/124.0.6367.88 Mobile/15E148 Safari/604.1",,1681,980,100.0,100.0,50.0,50.0,254094.0,D,3531.0,257625.0,71.0,0.0,3.0,575.0,50.0,
0,1234,-999999,0,0,IowaTask-v2.0,-mobile,jspsych-0.3a-mobile,1,List1,2024-04-29,0,0,projectseed-iowa-production,0.0-0.0-2.0-0.71,eng,6e64b31c6348ac9d094febdaa4fdb26e97e83af1,True,adolescent,635.0,844,390,844,390,5be94074-db34-43bf-a653-836de720ecc0,5be94074-db34-43bf-a653-836de720ecc0,projectseed_production_april2024,4,,259114,286,html-button-response,"Mozilla/5.0 (iPhone; CPU iPhone OS 17_4 like Mac OS X) AppleWebKit/605.1.15 (KHTML, like Gecko) CriOS/124.0.6367.88 Mobile/15E148 Safari/604.1",,1681,980,100.0,100.0,50.0,50.0,258940.0,C,635.0,259575.0,72.0,0.0,2.0,625.0,50.0,
0,1234,-999999,0,0,IowaTask-v2.0,-mobile,jspsych-0.3a-mobile,1,List1,2024-04-29,0,0,projectseed-iowa-production,0.0-0.0-2.0-0.72,eng,6e64b31c6348ac9d094febdaa4fdb26e97e83af1,True,adolescent,471.0,844,390,844,390,5be94074-db34-43bf-a653-836de720ecc0,5be94074-db34-43bf-a653-836de720ecc0,projectseed_production_april2024,4,,260897,290,html-button-response,"Mozilla/5.0 (iPhone; CPU iPhone OS 17_4 like Mac OS X) AppleWebKit/605.1.15 (KHTML, like Gecko) CriOS/124.0.6367.88 Mobile/15E148 Safari/604.1",,1681,980,100.0,100.0,25.0,50.0,260886.00000000003,D,471.0,261357.00000000003,73.0,0.0,3.0,675.0,50.0,
0,1234,-999999,0,0,IowaTask-v2.0,-mobile,jspsych-0.3a-mobile,1,List1,2024-04-29,0,0,projectseed-iowa-production,0.0-0.0-2.0-0.73,eng,6e64b31c6348ac9d094febdaa4fdb26e97e83af1,True,adolescent,476.0,844,390,844,390,5be94074-db34-43bf-a653-836de720ecc0,5be94074-db34-43bf-a653-836de720ecc0,projectseed_production_april2024,4,,262683,294,html-button-response,"Mozilla/5.0 (iPhone; CPU iPhone OS 17_4 like Mac OS X) AppleWebKit/605.1.15 (KHTML, like Gecko) CriOS/124.0.6367.88 Mobile/15E148 Safari/604.1",,1681,980,100.0,100.0,25.0,50.0,262667.0,A,476.0,263143.0,74.0,0.0,0.0,775.0,100.0,
0,1234,-999999,0,0,IowaTask-v2.0,-mobile,jspsych-0.3a-mobile,1,List1,2024-04-29,0,0,projectseed-iowa-production,0.0-0.0-2.0-0.74,eng,6e64b31c6348ac9d094febdaa4fdb26e97e83af1,True,adolescent,858.0,844,390,844,390,5be94074-db34-43bf-a653-836de720ecc0,5be94074-db34-43bf-a653-836de720ecc0,projectseed_production_april2024,4,,264852,298,html-button-response,"Mozilla/5.0 (iPhone; CPU iPhone OS 17_4 like Mac OS X) AppleWebKit/605.1.15 (KHTML, like Gecko) CriOS/124.0.6367.88 Mobile/15E148 Safari/604.1",,1681,980,-150.0,100.0,25.0,50.0,264455.0,A,858.0,265313.0,75.0,-250.0,0.0,625.0,-150.0,
0,1234,-999999,0,0,IowaTask-v2.0,-mobile,jspsych-0.3a-mobile,1,List1,2024-04-29,0,0,projectseed-iowa-production,0.0-0.0-2.0-0.75,eng,6e64b31c6348ac9d094febdaa4fdb26e97e83af1,True,adolescent,535.0,844,390,844,390,5be94074-db34-43bf-a653-836de720ecc0,5be94074-db34-43bf-a653-836de720ecc0,projectseed_production_april2024,4,,267701,302,html-button-response,"Mozilla/5.0 (iPhone; CPU iPhone OS 17_4 like Mac OS X) AppleWebKit/605.1.15 (KHTML, like Gecko) CriOS/124.0.6367.88 Mobile/15E148 Safari/604.1",,1681,980,100.0,100.0,25.0,50.0,267626.0,C,535.0,268161.0,76.0,-25.0,2.0,650.0,25.0,
0,1234,-999999,0,0,IowaTask-v2.0,-mobile,jspsych-0.3a-mobile,1,List1,2024-04-29,0,0,projectseed-iowa-production,0.0-0.0-2.0-0.76,eng,6e64b31c6348ac9d094febdaa4fdb26e97e83af1,True,adolescent,455.0,844,390,844,390,5be94074-db34-43bf-a653-836de720ecc0,5be94074-db34-43bf-a653-836de720ecc0,projectseed_production_april2024,4,,270474,306,html-button-response,"Mozilla/5.0 (iPhone; CPU iPhone OS 17_4 like Mac OS X) AppleWebKit/605.1.15 (KHTML, like Gecko) CriOS/124.0.6367.88 Mobile/15E148 Safari/604.1",,1681,980,100.0,100.0,50.0,50.0,270480.0,B,455.0,270935.0,77.0,0.0,1.0,750.0,100.0,
0,1234,-999999,0,0,IowaTask-v2.0,-mobile,jspsych-0.3a-mobile,1,List1,2024-04-29,0,0,projectseed-iowa-production,0.0-0.0-2.0-0.77,eng,6e64b31c6348ac9d094febdaa4fdb26e97e83af1,True,adolescent,651.0,844,390,844,390,5be94074-db34-43bf-a653-836de720ecc0,5be94074-db34-43bf-a653-836de720ecc0,projectseed_production_april2024,4,,272440,310,html-button-response,"Mozilla/5.0 (iPhone; CPU iPhone OS 17_4 like Mac OS X) AppleWebKit/605.1.15 (KHTML, like Gecko) CriOS/124.0.6367.88 Mobile/15E148 Safari/604.1",,1681,980,100.0,100.0,50.0,50.0,272249.0,D,651.0,272900.0,78.0,0.0,3.0,800.0,50.0,
0,1234,-999999,0,0,IowaTask-v2.0,-mobile,jspsych-0.3a-mobile,1,List1,2024-04-29,0,0,projectseed-iowa-production,0.0-0.0-2.0-0.78,eng,6e64b31c6348ac9d094febdaa4fdb26e97e83af1,True,adolescent,838.0,844,390,844,390,5be94074-db34-43bf-a653-836de720ecc0,5be94074-db34-43bf-a653-836de720ecc0,projectseed_production_april2024,4,,274591,314,html-button-response,"Mozilla/5.0 (iPhone; CPU iPhone OS 17_4 like Mac OS X) AppleWebKit/605.1.15 (KHTML, like Gecko) CriOS/124.0.6367.88 Mobile/15E148 Safari/604.1",,1681,980,100.0,100.0,50.0,50.0,274213.0,A,838.0,275051.0,79.0,0.0,0.0,900.0,100.0,
0,1234,-999999,0,0,IowaTask-v2.0,-mobile,jspsych-0.3a-mobile,1,List1,2024-04-29,0,0,projectseed-iowa-production,0.0-0.0-2.0-0.79,eng,6e64b31c6348ac9d094febdaa4fdb26e97e83af1,True,adolescent,636.0,844,390,844,390,5be94074-db34-43bf-a653-836de720ecc0,5be94074-db34-43bf-a653-836de720ecc0,projectseed_production_april2024,4,,276542,318,html-button-response,"Mozilla/5.0 (iPhone; CPU iPhone OS 17_4 like Mac OS X) AppleWebKit/605.1.15 (KHTML, like Gecko) CriOS/124.0.6367.88 Mobile/15E148 Safari/604.1",,1681,980,-50.0,100.0,50.0,50.0,276367.0,B,636.0,277003.0,80.0,0.0,1.0,1000.0,100.0,
0,1234,-999999,0,0,IowaTask-v2.0,-mobile,jspsych-0.3a-mobile,1,List1,2024-04-29,0,0,projectseed-iowa-production,0.0-0.0-2.0-0.80,eng,6e64b31c6348ac9d094febdaa4fdb26e97e83af1,True,adolescent,1307.0,844,390,844,390,5be94074-db34-43bf-a653-836de720ecc0,5be94074-db34-43bf-a653-836de720ecc0,projectseed_production_april2024,4,,279161,322,html-button-response,"Mozilla/5.0 (iPhone; CPU iPhone OS 17_4 like Mac OS X) AppleWebKit/605.1.15 (KHTML, like Gecko) CriOS/124.0.6367.88 Mobile/15E148 Safari/604.1",,1681,980,-50.0,100.0,50.0,50.0,278314.0,B,1307.0,279621.0,81.0,0.0,1.0,1100.0,100.0,
0,1234,-999999,0,0,IowaTask-v2.0,-mobile,jspsych-0.3a-mobile,1,List1,2024-04-29,0,0,projectseed-iowa-production,0.0-0.0-2.0-0.81,eng,6e64b31c6348ac9d094febdaa4fdb26e97e83af1,True,adolescent,457.0,844,390,844,390,5be94074-db34-43bf-a653-836de720ecc0,5be94074-db34-43bf-a653-836de720ecc0,projectseed_production_april2024,4,,280930,326,html-button-response,"Mozilla/5.0 (iPhone; CPU iPhone OS 17_4 like Mac OS X) AppleWebKit/605.1.15 (KHTML, like Gecko) CriOS/124.0.6367.88 Mobile/15E148 Safari/604.1",,1681,980,-50.0,100.0,50.0,50.0,280933.0,D,457.0,281390.0,82.0,0.0,3.0,1150.0,50.0,
0,1234,-999999,0,0,IowaTask-v2.0,-mobile,jspsych-0.3a-mobile,1,List1,2024-04-29,0,0,projectseed-iowa-production,0.0-0.0-2.0-0.82,eng,6e64b31c6348ac9d094febdaa4fdb26e97e83af1,True,adolescent,540.0,844,390,844,390,5be94074-db34-43bf-a653-836de720ecc0,5be94074-db34-43bf-a653-836de720ecc0,projectseed_production_april2024,4,,282781,330,html-button-response,"Mozilla/5.0 (iPhone; CPU iPhone OS 17_4 like Mac OS X) AppleWebKit/605.1.15 (KHTML, like Gecko) CriOS/124.0.6367.88 Mobile/15E148 Safari/604.1",,1681,980,-50.0,100.0,50.0,50.0,282701.0,A,540.0,283241.0,83.0,-150.0,0.0,1100.0,-50.0,
0,1234,-999999,0,0,IowaTask-v2.0,-mobile,jspsych-0.3a-mobile,1,List1,2024-04-29,0,0,projectseed-iowa-production,0.0-0.0-2.0-0.83,eng,6e64b31c6348ac9d094febdaa4fdb26e97e83af1,True,adolescent,456.0,844,390,844,390,5be94074-db34-43bf-a653-836de720ecc0,5be94074-db34-43bf-a653-836de720ecc0,projectseed_production_april2024,4,,285553,334,html-button-response,"Mozilla/5.0 (iPhone; CPU iPhone OS 17_4 like Mac OS X) AppleWebKit/605.1.15 (KHTML, like Gecko) CriOS/124.0.6367.88 Mobile/15E148 Safari/604.1",,1681,980,100.0,100.0,50.0,50.0,285558.0,C,456.0,286014.0,84.0,0.0,2.0,1150.0,50.0,
0,1234,-999999,0,0,IowaTask-v2.0,-mobile,jspsych-0.3a-mobile,1,List1,2024-04-29,0,0,projectseed-iowa-production,0.0-0.0-2.0-0.84,eng,6e64b31c6348ac9d094febdaa4fdb26e97e83af1,True,adolescent,1314.0,844,390,844,390,5be94074-db34-43bf-a653-836de720ecc0,5be94074-db34-43bf-a653-836de720ecc0,projectseed_production_april2024,4,,288180,338,html-button-response,"Mozilla/5.0 (iPhone; CPU iPhone OS 17_4 like Mac OS X) AppleWebKit/605.1.15 (KHTML, like Gecko) CriOS/124.0.6367.88 Mobile/15E148 Safari/604.1",,1681,980,100.0,100.0,25.0,50.0,287327.0,B,1314.0,288641.0,85.0,0.0,1.0,1250.0,100.0,
0,1234,-999999,0,0,IowaTask-v2.0,-mobile,jspsych-0.3a-mobile,1,List1,2024-04-29,0,0,projectseed-iowa-production,0.0-0.0-2.0-0.85,eng,6e64b31c6348ac9d094febdaa4fdb26e97e83af1,True,adolescent,510.0,844,390,844,390,5be94074-db34-43bf-a653-836de720ecc0,5be94074-db34-43bf-a653-836de720ecc0,projectseed_production_april2024,4,,290002,342,html-button-response,"Mozilla/5.0 (iPhone; CPU iPhone OS 17_4 like Mac OS X) AppleWebKit/605.1.15 (KHTML, like Gecko) CriOS/124.0.6367.88 Mobile/15E148 Safari/604.1",,1681,980,100.0,100.0,25.0,50.0,289953.0,D,510.0,290463.0,86.0,0.0,3.0,1300.0,50.0,
0,1234,-999999,0,0,IowaTask-v2.0,-mobile,jspsych-0.3a-mobile,1,List1,2024-04-29,0,0,projectseed-iowa-production,0.0-0.0-2.0-0.86,eng,6e64b31c6348ac9d094febdaa4fdb26e97e83af1,True,adolescent,563.0,844,390,844,390,5be94074-db34-43bf-a653-836de720ecc0,5be94074-db34-43bf-a653-836de720ecc0,projectseed_production_april2024,4,,291877,346,html-button-response,"Mozilla/5.0 (iPhone; CPU iPhone OS 17_4 like Mac OS X) AppleWebKit/605.1.15 (KHTML, like Gecko) CriOS/124.0.6367.88 Mobile/15E148 Safari/604.1",,1681,980,100.0,100.0,25.0,50.0,291774.0,B,563.0,292337.0,87.0,0.0,1.0,1400.0,100.0,
0,1234,-999999,0,0,IowaTask-v2.0,-mobile,jspsych-0.3a-mobile,1,List1,2024-04-29,0,0,projectseed-iowa-production,0.0-0.0-2.0-0.87,eng,6e64b31c6348ac9d094febdaa4fdb26e97e83af1,True,adolescent,401.0,844,390,844,390,5be94074-db34-43bf-a653-836de720ecc0,5be94074-db34-43bf-a653-836de720ecc0,projectseed_production_april2024,4,,293589,350,html-button-response,"Mozilla/5.0 (iPhone; CPU iPhone OS 17_4 like Mac OS X) AppleWebKit/605.1.15 (KHTML, like Gecko) CriOS/124.0.6367.88 Mobile/15E148 Safari/604.1",,1681,980,100.0,100.0,25.0,50.0,293648.0,C,401.0,294049.0,88.0,-25.0,2.0,1425.0,25.0,
0,1234,-999999,0,0,IowaTask-v2.0,-mobile,jspsych-0.3a-mobile,1,List1,2024-04-29,0,0,projectseed-iowa-production,0.0-0.0-2.0-0.88,eng,6e64b31c6348ac9d094febdaa4fdb26e97e83af1,True,adolescent,641.0,844,390,844,390,5be94074-db34-43bf-a653-836de720ecc0,5be94074-db34-43bf-a653-836de720ecc0,projectseed_production_april2024,4,,296543,354,html-button-response,"Mozilla/5.0 (iPhone; CPU iPhone OS 17_4 like Mac OS X) AppleWebKit/605.1.15 (KHTML, like Gecko) CriOS/124.0.6367.88 Mobile/15E148 Safari/604.1",,1681,980,100.0,100.0,-25.0,50.0,296363.0,B,641.0,297004.0,89.0,0.0,1.0,1525.0,100.0,
0,1234,-999999,0,0,IowaTask-v2.0,-mobile,jspsych-0.3a-mobile,1,List1,2024-04-29,0,0,projectseed-iowa-production,0.0-0.0-2.0-0.89,eng,6e64b31c6348ac9d094febdaa4fdb26e97e83af1,True,adolescent,439.0,844,390,844,390,5be94074-db34-43bf-a653-836de720ecc0,5be94074-db34-43bf-a653-836de720ecc0,projectseed_production_april2024,4,,298295,358,html-button-response,"Mozilla/5.0 (iPhone; CPU iPhone OS 17_4 like Mac OS X) AppleWebKit/605.1.15 (KHTML, like Gecko) CriOS/124.0.6367.88 Mobile/15E148 Safari/604.1",,1681,980,100.0,100.0,-25.0,50.0,298316.0,A,439.0,298755.0,90.0,0.0,0.0,1625.0,100.0,
0,1234,-999999,0,0,IowaTask-v2.0,-mobile,jspsych-0.3a-mobile,1,List1,2024-04-29,0,0,projectseed-iowa-production,0.0-0.0-2.0-0.90,eng,6e64b31c6348ac9d094febdaa4fdb26e97e83af1,True,adolescent,1057.0,844,390,844,390,5be94074-db34-43bf-a653-836de720ecc0,5be94074-db34-43bf-a653-836de720ecc0,projectseed_production_april2024,4,,300664,362,html-button-response,"Mozilla/5.0 (iPhone; CPU iPhone OS 17_4 like Mac OS X) AppleWebKit/605.1.15 (KHTML, like Gecko) CriOS/124.0.6367.88 Mobile/15E148 Safari/604.1",,1681,980,100.0,100.0,-25.0,50.0,300067.0,C,1057.0,301124.0,91.0,-75.0,2.0,1600.0,-25.0,
0,1234,-999999,0,0,IowaTask-v2.0,-mobile,jspsych-0.3a-mobile,1,List1,2024-04-29,0,0,projectseed-iowa-production,0.0-0.0-2.0-0.91,eng,6e64b31c6348ac9d094febdaa4fdb26e97e83af1,True,adolescent,558.0,844,390,844,390,5be94074-db34-43bf-a653-836de720ecc0,5be94074-db34-43bf-a653-836de720ecc0,projectseed_production_april2024,4,,303533,366,html-button-response,"Mozilla/5.0 (iPhone; CPU iPhone OS 17_4 like Mac OS X) AppleWebKit/605.1.15 (KHTML, like Gecko) CriOS/124.0.6367.88 Mobile/15E148 Safari/604.1",,1681,980,100.0,100.0,50.0,50.0,303436.0,D,558.0,303994.0,92.0,0.0,3.0,1650.0,50.0,
0,1234,-999999,0,0,IowaTask-v2.0,-mobile,jspsych-0.3a-mobile,1,List1,2024-04-29,0,0,projectseed-iowa-production,0.0-0.0-2.0-0.92,eng,6e64b31c6348ac9d094febdaa4fdb26e97e83af1,True,adolescent,356.0,844,390,844,390,5be94074-db34-43bf-a653-836de720ecc0,5be94074-db34-43bf-a653-836de720ecc0,projectseed_production_april2024,4,,305200,370,html-button-response,"Mozilla/5.0 (iPhone; CPU iPhone OS 17_4 like Mac OS X) AppleWebKit/605.1.15 (KHTML, like Gecko) CriOS/124.0.6367.88 Mobile/15E148 Safari/604.1",,1681,980,100.0,100.0,50.0,50.0,305305.0,D,356.0,305661.0,93.0,0.0,3.0,1700.0,50.0,
0,1234,-999999,0,0,IowaTask-v2.0,-mobile,jspsych-0.3a-mobile,1,List1,2024-04-29,0,0,projectseed-iowa-production,0.0-0.0-2.0-0.93,eng,6e64b31c6348ac9d094febdaa4fdb26e97e83af1,True,adolescent,564.0,844,390,844,390,5be94074-db34-43bf-a653-836de720ecc0,5be94074-db34-43bf-a653-836de720ecc0,projectseed_production_april2024,4,,307084,374,html-button-response,"Mozilla/5.0 (iPhone; CPU iPhone OS 17_4 like Mac OS X) AppleWebKit/605.1.15 (KHTML, like Gecko) CriOS/124.0.6367.88 Mobile/15E148 Safari/604.1",,1681,980,100.0,100.0,50.0,50.0,306981.0,B,564.0,307545.0,94.0,0.0,1.0,1800.0,100.0,
0,1234,-999999,0,0,IowaTask-v2.0,-mobile,jspsych-0.3a-mobile,1,List1,2024-04-29,0,0,projectseed-iowa-production,0.0-0.0-2.0-0.94,eng,6e64b31c6348ac9d094febdaa4fdb26e97e83af1,True,adolescent,590.0,844,390,844,390,5be94074-db34-43bf-a653-836de720ecc0,5be94074-db34-43bf-a653-836de720ecc0,projectseed_production_april2024,4,,308987,378,html-button-response,"Mozilla/5.0 (iPhone; CPU iPhone OS 17_4 like Mac OS X) AppleWebKit/605.1.15 (KHTML, like Gecko) CriOS/124.0.6367.88 Mobile/15E148 Safari/604.1",,1681,980,100.0,100.0,50.0,50.0,308857.0,C,590.0,309447.0,95.0,0.0,2.0,1850.0,50.0,
0,1234,-999999,0,0,IowaTask-v2.0,-mobile,jspsych-0.3a-mobile,1,List1,2024-04-29,0,0,projectseed-iowa-production,0.0-0.0-2.0-0.95,eng,6e64b31c6348ac9d094febdaa4fdb26e97e83af1,True,adolescent,653.0,844,390,844,390,5be94074-db34-43bf-a653-836de720ecc0,5be94074-db34-43bf-a653-836de720ecc0,projectseed_production_april2024,4,,310954,382,html-button-response,"Mozilla/5.0 (iPhone; CPU iPhone OS 17_4 like Mac OS X) AppleWebKit/605.1.15 (KHTML, like Gecko) CriOS/124.0.6367.88 Mobile/15E148 Safari/604.1",,1681,980,100.0,100.0,25.0,50.0,310762.0,A,653.0,311415.0,96.0,0.0,0.0,1950.0,100.0,
0,1234,-999999,0,0,IowaTask-v2.0,-mobile,jspsych-0.3a-mobile,1,List1,2024-04-29,0,0,projectseed-iowa-production,0.0-0.0-2.0-0.96,eng,6e64b31c6348ac9d094febdaa4fdb26e97e83af1,True,adolescent,1042.0,844,390,844,390,5be94074-db34-43bf-a653-836de720ecc0,5be94074-db34-43bf-a653-836de720ecc0,projectseed_production_april2024,4,,313309,386,html-button-response,"Mozilla/5.0 (iPhone; CPU iPhone OS 17_4 like Mac OS X) AppleWebKit/605.1.15 (KHTML, like Gecko) CriOS/124.0.6367.88 Mobile/15E148 Safari/604.1",,1681,980,100.0,100.0,25.0,50.0,312727.0,D,1042.0,313769.0,97.0,0.0,3.0,2000.0,50.0,
0,1234,-999999,0,0,IowaTask-v2.0,-mobile,jspsych-0.3a-mobile,1,List1,2024-04-29,0,0,projectseed-iowa-production,0.0-0.0-2.0-0.97,eng,6e64b31c6348ac9d094febdaa4fdb26e97e83af1,True,adolescent,1053.0,844,390,844,390,5be94074-db34-43bf-a653-836de720ecc0,5be94074-db34-43bf-a653-836de720ecc0,projectseed_production_april2024,4,,315674,390,html-button-response,"Mozilla/5.0 (iPhone; CPU iPhone OS 17_4 like Mac OS X) AppleWebKit/605.1.15 (KHTML, like Gecko) CriOS/124.0.6367.88 Mobile/15E148 Safari/604.1",,1681,980,100.0,100.0,25.0,50.0,315082.0,C,1053.0,316135.0,98.0,-25.0,2.0,2025.0,25.0,
0,1234,-999999,0,0,IowaTask-v2.0,-mobile,jspsych-0.3a-mobile,1,List1,2024-04-29,0,0,projectseed-iowa-production,0.0-0.0-2.0-0.98,eng,6e64b31c6348ac9d094febdaa4fdb26e97e83af1,True,adolescent,522.0,844,390,844,390,5be94074-db34-43bf-a653-836de720ecc0,5be94074-db34-43bf-a653-836de720ecc0,projectseed_production_april2024,4,,318511,394,html-button-response,"Mozilla/5.0 (iPhone; CPU iPhone OS 17_4 like Mac OS X) AppleWebKit/605.1.15 (KHTML, like Gecko) CriOS/124.0.6367.88 Mobile/15E148 Safari/604.1",,1681,980,100.0,100.0,50.0,50.0,318449.0,B,522.0,318971.0,99.0,0.0,1.0,2125.0,100.0,
0,1234,-999999,0,0,IowaTask-v2.0,-mobile,jspsych-0.3a-mobile,1,List1,2024-04-29,0,0,projectseed-iowa-production,0.0-0.0-2.0-0.99,eng,6e64b31c6348ac9d094febdaa4fdb26e97e83af1,True,adolescent,1707.0,844,390,844,390,5be94074-db34-43bf-a653-836de720ecc0,5be94074-db34-43bf-a653-836de720ecc0,projectseed_production_april2024,4,,321529,398,html-button-response,"Mozilla/5.0 (iPhone; CPU iPhone OS 17_4 like Mac OS X) AppleWebKit/605.1.15 (KHTML, like Gecko) CriOS/124.0.6367.88 Mobile/15E148 Safari/604.1",,1681,980,100.0,100.0,50.0,50.0,320283.0,C,1707.0,321990.0,100.0,0.0,2.0,2175.0,50.0,
0,1234,-999999,0,0,IowaTask-v2.0,-mobile,jspsych-0.3a-mobile,1,List1,2024-04-29,0,0,projectseed-iowa-production,0.0-0.0-2.0-0.100,eng,6e64b31c6348ac9d094febdaa4fdb26e97e83af1,True,adolescent,838.0,844,390,844,390,5be94074-db34-43bf-a653-836de720ecc0,5be94074-db34-43bf-a653-836de720ecc0,projectseed_production_april2024,4,,323680,402,html-button-response,"Mozilla/5.0 (iPhone; CPU iPhone OS 17_4 like Mac OS X) AppleWebKit/605.1.15 (KHTML, like Gecko) CriOS/124.0.6367.88 Mobile/15E148 Safari/604.1",,1681,980,100.0,100.0,0.0,50.0,323303.0,C,838.0,324141.0,101.0,-50.0,2.0,2175.0,0.0,
0,1234,-999999,0,0,IowaTask-v2.0,-mobile,jspsych-0.3a-mobile,1,List1,2024-04-29,0,0,projectseed-iowa-production,0.0-0.0-2.0-0.101,eng,6e64b31c6348ac9d094febdaa4fdb26e97e83af1,True,adolescent,512.0,844,390,844,390,5be94074-db34-43bf-a653-836de720ecc0,5be94074-db34-43bf-a653-836de720ecc0,projectseed_production_april2024,4,,326503,406,html-button-response,"Mozilla/5.0 (iPhone; CPU iPhone OS 17_4 like Mac OS X) AppleWebKit/605.1.15 (KHTML, like Gecko) CriOS/124.0.6367.88 Mobile/15E148 Safari/604.1",,1681,980,100.0,100.0,50.0,50.0,326452.0,A,512.0,326964.0,102.0,0.0,0.0,2275.0,100.0,
0,1234,-999999,0,0,IowaTask-v2.0,-mobile,jspsych-0.3a-mobile,1,List1,2024-04-29,0,0,projectseed-iowa-production,0.0-0.0-2.0-0.102,eng,6e64b31c6348ac9d094febdaa4fdb26e97e83af1,True,adolescent,561.0,844,390,844,390,5be94074-db34-43bf-a653-836de720ecc0,5be94074-db34-43bf-a653-836de720ecc0,projectseed_production_april2024,4,,328377,410,html-button-response,"Mozilla/5.0 (iPhone; CPU iPhone OS 17_4 like Mac OS X) AppleWebKit/605.1.15 (KHTML, like Gecko) CriOS/124.0.6367.88 Mobile/15E148 Safari/604.1",,1681,980,-250.0,100.0,50.0,50.0,328277.0,D,561.0,328838.0,103.0,0.0,3.0,2325.0,50.0,
0,1234,-999999,0,0,IowaTask-v2.0,-mobile,jspsych-0.3a-mobile,1,List1,2024-04-29,0,0,projectseed-iowa-production,0.0-0.0-2.0-0.103,eng,6e64b31c6348ac9d094febdaa4fdb26e97e83af1,True,adolescent,21492.0,844,390,844,390,5be94074-db34-43bf-a653-836de720ecc0,5be94074-db34-43bf-a653-836de720ecc0,projectseed_production_april2024,4,,351182,414,html-button-response,"Mozilla/5.0 (iPhone; CPU iPhone OS 17_4 like Mac OS X) AppleWebKit/605.1.15 (KHTML, like Gecko) CriOS/124.0.6367.88 Mobile/15E148 Safari/604.1",,1681,980,-250.0,100.0,50.0,50.0,330151.0,B,21492.0,351643.0,104.0,0.0,1.0,2425.0,100.0,
0,1234,-999999,0,0,IowaTask-v2.0,-mobile,jspsych-0.3a-mobile,1,List1,2024-04-29,0,0,projectseed-iowa-production,0.0-0.0-2.0-0.104,eng,6e64b31c6348ac9d094febdaa4fdb26e97e83af1,True,adolescent,537.0,844,390,844,390,5be94074-db34-43bf-a653-836de720ecc0,5be94074-db34-43bf-a653-836de720ecc0,projectseed_production_april2024,4,,353032,418,html-button-response,"Mozilla/5.0 (iPhone; CPU iPhone OS 17_4 like Mac OS X) AppleWebKit/605.1.15 (KHTML, like Gecko) CriOS/124.0.6367.88 Mobile/15E148 Safari/604.1",,1681,980,-250.0,100.0,50.0,50.0,352956.0,C,537.0,353493.0,105.0,0.0,2.0,2475.0,50.0,
0,1234,-999999,0,0,IowaTask-v2.0,-mobile,jspsych-0.3a-mobile,1,List1,2024-04-29,0,0,projectseed-iowa-production,0.0-0.0-2.0-0.105,eng,6e64b31c6348ac9d094febdaa4fdb26e97e83af1,True,adolescent,9576.0,844,390,844,390,5be94074-db34-43bf-a653-836de720ecc0,5be94074-db34-43bf-a653-836de720ecc0,projectseed_production_april2024,4,,363922,422,html-button-response,"Mozilla/5.0 (iPhone; CPU iPhone OS 17_4 like Mac OS X) AppleWebKit/605.1.15 (KHTML, like Gecko) CriOS/124.0.6367.88 Mobile/15E148 Safari/604.1",,1681,980,-250.0,100.0,-25.0,50.0,354807.0,C,9576.0,364383.0,106.0,-75.0,2.0,2450.0,-25.0,
0,1234,-999999,0,0,IowaTask-v2.0,-mobile,jspsych-0.3a-mobile,1,List1,2024-04-29,0,0,projectseed-iowa-production,0.0-0.0-2.0-0.106,eng,6e64b31c6348ac9d094febdaa4fdb26e97e83af1,True,adolescent,2499.0,844,390,844,390,5be94074-db34-43bf-a653-836de720ecc0,5be94074-db34-43bf-a653-836de720ecc0,projectseed_production_april2024,4,,368731,426,html-button-response,"Mozilla/5.0 (iPhone; CPU iPhone OS 17_4 like Mac OS X) AppleWebKit/605.1.15 (KHTML, like Gecko) CriOS/124.0.6367.88 Mobile/15E148 Safari/604.1",,1681,980,-250.0,100.0,50.0,50.0,366693.0,A,2499.0,369192.0,107.0,-350.0,0.0,2200.0,-250.0,
0,1234,-999999,0,0,IowaTask-v2.0,-mobile,jspsych-0.3a-mobile,1,List1,2024-04-29,0,0,projectseed-iowa-production,0.0-0.0-2.0-0.107,eng,6e64b31c6348ac9d094febdaa4fdb26e97e83af1,True,adolescent,5812.0,844,390,844,390,5be94074-db34-43bf-a653-836de720ecc0,5be94074-db34-43bf-a653-836de720ecc0,projectseed_production_april2024,4,,376853,430,html-button-response,"Mozilla/5.0 (iPhone; CPU iPhone OS 17_4 like Mac OS X) AppleWebKit/605.1.15 (KHTML, like Gecko) CriOS/124.0.6367.88 Mobile/15E148 Safari/604.1",,1681,980,-200.0,100.0,50.0,50.0,371501.0,B,5812.0,377313.0,108.0,0.0,1.0,2300.0,100.0,
0,1234,-999999,0,0,IowaTask-v2.0,-mobile,jspsych-0.3a-mobile,1,List1,2024-04-29,0,0,projectseed-iowa-production,0.0-0.0-2.0-0.108,eng,6e64b31c6348ac9d094febdaa4fdb26e97e83af1,True,adolescent,1873.0,844,390,844,390,5be94074-db34-43bf-a653-836de720ecc0,5be94074-db34-43bf-a653-836de720ecc0,projectseed_production_april2024,4,,380038,434,html-button-response,"Mozilla/5.0 (iPhone; CPU iPhone OS 17_4 like Mac OS X) AppleWebKit/605.1.15 (KHTML, like Gecko) CriOS/124.0.6367.88 Mobile/15E148 Safari/604.1",,1681,980,-200.0,100.0,50.0,50.0,378626.0,D,1873.0,380499.0,109.0,0.0,3.0,2350.0,50.0,
0,1234,-999999,0,0,IowaTask-v2.0,-mobile,jspsych-0.3a-mobile,1,List1,2024-04-29,0,0,projectseed-iowa-production,0.0-0.0-2.0-0.109,eng,6e64b31c6348ac9d094febdaa4fdb26e97e83af1,True,adolescent,824.0,844,390,844,390,5be94074-db34-43bf-a653-836de720ecc0,5be94074-db34-43bf-a653-836de720ecc0,projectseed_production_april2024,4,,382177,438,html-button-response,"Mozilla/5.0 (iPhone; CPU iPhone OS 17_4 like Mac OS X) AppleWebKit/605.1.15 (KHTML, like Gecko) CriOS/124.0.6367.88 Mobile/15E148 Safari/604.1",,1681,980,-200.0,100.0,50.0,50.0,381813.0,C,824.0,382637.0,110.0,0.0,2.0,2400.0,50.0,
0,1234,-999999,0,0,IowaTask-v2.0,-mobile,jspsych-0.3a-mobile,1,List1,2024-04-29,0,0,projectseed-iowa-production,0.0-0.0-2.0-0.110,eng,6e64b31c6348ac9d094febdaa4fdb26e97e83af1,True,adolescent,1349.0,844,390,844,390,5be94074-db34-43bf-a653-836de720ecc0,5be94074-db34-43bf-a653-836de720ecc0,projectseed_production_april2024,4,,384840,442,html-button-response,"Mozilla/5.0 (iPhone; CPU iPhone OS 17_4 like Mac OS X) AppleWebKit/605.1.15 (KHTML, like Gecko) CriOS/124.0.6367.88 Mobile/15E148 Safari/604.1",,1681,980,-200.0,100.0,50.0,50.0,383952.0,C,1349.0,385301.0,111.0,0.0,2.0,2450.0,50.0,
0,1234,-999999,0,0,IowaTask-v2.0,-mobile,jspsych-0.3a-mobile,1,List1,2024-04-29,0,0,projectseed-iowa-production,0.0-0.0-2.0-0.111,eng,6e64b31c6348ac9d094febdaa4fdb26e97e83af1,True,adolescent,673.0,844,390,844,390,5be94074-db34-43bf-a653-836de720ecc0,5be94074-db34-43bf-a653-836de720ecc0,projectseed_production_april2024,4,,386826,446,html-button-response,"Mozilla/5.0 (iPhone; CPU iPhone OS 17_4 like Mac OS X) AppleWebKit/605.1.15 (KHTML, like Gecko) CriOS/124.0.6367.88 Mobile/15E148 Safari/604.1",,1681,980,-200.0,100.0,25.0,50.0,386614.00000000006,A,673.0,387287.00000000006,112.0,-300.0,0.0,2250.0,-200.0,
0,1234,-999999,0,0,IowaTask-v2.0,-mobile,jspsych-0.3a-mobile,1,List1,2024-04-29,0,0,projectseed-iowa-production,0.0-0.0-2.0-0.112,eng,6e64b31c6348ac9d094febdaa4fdb26e97e83af1,True,adolescent,757.0,844,390,844,390,5be94074-db34-43bf-a653-836de720ecc0,5be94074-db34-43bf-a653-836de720ecc0,projectseed_production_april2024,4,,389897,450,html-button-response,"Mozilla/5.0 (iPhone; CPU iPhone OS 17_4 like Mac OS X) AppleWebKit/605.1.15 (KHTML, like Gecko) CriOS/124.0.6367.88 Mobile/15E148 Safari/604.1",,1681,980,100.0,100.0,25.0,50.0,389601.0,B,757.0,390358.0,113.0,0.0,1.0,2350.0,100.0,
0,1234,-999999,0,0,IowaTask-v2.0,-mobile,jspsych-0.3a-mobile,1,List1,2024-04-29,0,0,projectseed-iowa-production,0.0-0.0-2.0-0.113,eng,6e64b31c6348ac9d094febdaa4fdb26e97e83af1,True,adolescent,652.0,844,390,844,390,5be94074-db34-43bf-a653-836de720ecc0,5be94074-db34-43bf-a653-836de720ecc0,projectseed_production_april2024,4,,391861,454,html-button-response,"Mozilla/5.0 (iPhone; CPU iPhone OS 17_4 like Mac OS X) AppleWebKit/605.1.15 (KHTML, like Gecko) CriOS/124.0.6367.88 Mobile/15E148 Safari/604.1",,1681,980,100.0,-1150.0,25.0,50.0,391670.0,D,652.0,392322.0,114.0,0.0,3.0,2400.0,50.0,
0,1234,-999999,0,0,IowaTask-v2.0,-mobile,jspsych-0.3a-mobile,1,List1,2024-04-29,0,0,projectseed-iowa-production,0.0-0.0-2.0-0.114,eng,6e64b31c6348ac9d094febdaa4fdb26e97e83af1,True,adolescent,1827.0,844,390,844,390,5be94074-db34-43bf-a653-836de720ecc0,5be94074-db34-43bf-a653-836de720ecc0,projectseed_production_april2024,4,,394999,458,html-button-response,"Mozilla/5.0 (iPhone; CPU iPhone OS 17_4 like Mac OS X) AppleWebKit/605.1.15 (KHTML, like Gecko) CriOS/124.0.6367.88 Mobile/15E148 Safari/604.1",,1681,980,100.0,-1150.0,25.0,50.0,393633.00000000006,D,1827.0,395460.00000000006,115.0,0.0,3.0,2450.0,50.0,
0,1234,-999999,0,0,IowaTask-v2.0,-mobile,jspsych-0.3a-mobile,1,List1,2024-04-29,0,0,projectseed-iowa-production,0.0-0.0-2.0-0.115,eng,6e64b31c6348ac9d094febdaa4fdb26e97e83af1,True,adolescent,1024.0,844,390,844,390,5be94074-db34-43bf-a653-836de720ecc0,5be94074-db34-43bf-a653-836de720ecc0,projectseed_production_april2024,4,,397334,462,html-button-response,"Mozilla/5.0 (iPhone; CPU iPhone OS 17_4 like Mac OS X) AppleWebKit/605.1.15 (KHTML, like Gecko) CriOS/124.0.6367.88 Mobile/15E148 Safari/604.1",,1681,980,100.0,-1150.0,25.0,-200.0,396770.0,A,1024.0,397794.0,116.0,0.0,0.0,2550.0,100.0,
0,1234,-999999,0,0,IowaTask-v2.0,-mobile,jspsych-0.3a-mobile,1,List1,2024-04-29,0,0,projectseed-iowa-production,0.0-0.0-2.0-0.116,eng,6e64b31c6348ac9d094febdaa4fdb26e97e83af1,True,adolescent,755.0,844,390,844,390,5be94074-db34-43bf-a653-836de720ecc0,5be94074-db34-43bf-a653-836de720ecc0,projectseed_production_april2024,4,,399400,466,html-button-response,"Mozilla/5.0 (iPhone; CPU iPhone OS 17_4 like Mac OS X) AppleWebKit/605.1.15 (KHTML, like Gecko) CriOS/124.0.6367.88 Mobile/15E148 Safari/604.1",,1681,980,100.0,-1150.0,25.0,-200.0,399105.0,B,755.0,399860.0,117.0,-1250.0,1.0,1400.0,-1150.0,
0,1234,-999999,0,0,IowaTask-v2.0,-mobile,jspsych-0.3a-mobile,1,List1,2024-04-29,0,0,projectseed-iowa-production,0.0-0.0-2.0-0.117,eng,6e64b31c6348ac9d094febdaa4fdb26e97e83af1,True,adolescent,896.0,844,390,844,390,5be94074-db34-43bf-a653-836de720ecc0,5be94074-db34-43bf-a653-836de720ecc0,projectseed_production_april2024,4,,402607,470,html-button-response,"Mozilla/5.0 (iPhone; CPU iPhone OS 17_4 like Mac OS X) AppleWebKit/605.1.15 (KHTML, like Gecko) CriOS/124.0.6367.88 Mobile/15E148 Safari/604.1",,1681,980,100.0,100.0,25.0,-200.0,402172.0,C,896.0,403068.0,118.0,-25.0,2.0,1425.0,25.0,
0,1234,-999999,0,0,IowaTask-v2.0,-mobile,jspsych-0.3a-mobile,1,List1,2024-04-29,0,0,projectseed-iowa-production,0.0-0.0-2.0-0.118,eng,6e64b31c6348ac9d094febdaa4fdb26e97e83af1,True,adolescent,657.0,844,390,844,390,5be94074-db34-43bf-a653-836de720ecc0,5be94074-db34-43bf-a653-836de720ecc0,projectseed_production_april2024,4,,405575,474,html-button-response,"Mozilla/5.0 (iPhone; CPU iPhone OS 17_4 like Mac OS X) AppleWebKit/605.1.15 (KHTML, like Gecko) CriOS/124.0.6367.88 Mobile/15E148 Safari/604.1",,1681,980,100.0,100.0,50.0,-200.0,405379.0,A,657.0,406036.0,119.0,0.0,0.0,1525.0,100.0,
0,1234,-999999,0,0,IowaTask-v2.0,-mobile,jspsych-0.3a-mobile,1,List1,2024-04-29,0,0,projectseed-iowa-production,0.0-0.0-2.0-0.119,eng,6e64b31c6348ac9d094febdaa4fdb26e97e83af1,True,adolescent,490.0,844,390,844,390,5be94074-db34-43bf-a653-836de720ecc0,5be94074-db34-43bf-a653-836de720ecc0,projectseed_production_april2024,4,,407378,478,html-button-response,"Mozilla/5.0 (iPhone; CPU iPhone OS 17_4 like Mac OS X) AppleWebKit/605.1.15 (KHTML, like Gecko) CriOS/124.0.6367.88 Mobile/15E148 Safari/604.1",,1681,980,-50.0,100.0,50.0,-200.0,407349.0,D,490.0,407839.0,120.0,-250.0,3.0,1325.0,-200.0,
0,1234,-999999,0,0,IowaTask-v2.0,-mobile,jspsych-0.3a-mobile,1,List1,2024-04-29,0,0,projectseed-iowa-production,0.0-0.0-2.0-0.120,eng,6e64b31c6348ac9d094febdaa4fdb26e97e83af1,True,adolescent,2393.0,844,390,844,390,5be94074-db34-43bf-a653-836de720ecc0,5be94074-db34-43bf-a653-836de720ecc0,projectseed_production_april2024,4,,412081,482,html-button-response,"Mozilla/5.0 (iPhone; CPU iPhone OS 17_4 like Mac OS X) AppleWebKit/605.1.15 (KHTML, like Gecko) CriOS/124.0.6367.88 Mobile/15E148 Safari/604.1",,1681,980,-50.0,100.0,50.0,50.0,410149.00000000006,A,2393.0,412542.00000000006,121.0,-150.0,0.0,1275.0,-50.0,
0,1234,-999999,0,0,IowaTask-v2.0,-mobile,jspsych-0.3a-mobile,1,List1,2024-04-29,0,0,projectseed-iowa-production,0.0-0.0-2.0-0.121,eng,6e64b31c6348ac9d094febdaa4fdb26e97e83af1,True,adolescent,1208.0,844,390,844,390,5be94074-db34-43bf-a653-836de720ecc0,5be94074-db34-43bf-a653-836de720ecc0,projectseed_production_april2024,4,,415601,486,html-button-response,"Mozilla/5.0 (iPhone; CPU iPhone OS 17_4 like Mac OS X) AppleWebKit/605.1.15 (KHTML, like Gecko) CriOS/124.0.6367.88 Mobile/15E148 Safari/604.1",,1681,980,-100.0,100.0,50.0,50.0,414854.0,D,1208.0,416062.0,122.0,0.0,3.0,1325.0,50.0,
0,1234,-999999,0,0,IowaTask-v2.0,-mobile,jspsych-0.3a-mobile,1,List1,2024-04-29,0,0,projectseed-iowa-production,0.0-0.0-2.0-0.122,eng,6e64b31c6348ac9d094febdaa4fdb26e97e83af1,True,adolescent,523.0,844,390,844,390,5be94074-db34-43bf-a653-836de720ecc0,5be94074-db34-43bf-a653-836de720ecc0,projectseed_production_april2024,4,,417436,490,html-button-response,"Mozilla/5.0 (iPhone; CPU iPhone OS 17_4 like Mac OS X) AppleWebKit/605.1.15 (KHTML, like Gecko) CriOS/124.0.6367.88 Mobile/15E148 Safari/604.1",,1681,980,-100.0,100.0,50.0,50.0,417374.0,C,523.0,417897.0,123.0,0.0,2.0,1375.0,50.0,
0,1234,-999999,0,0,IowaTask-v2.0,-mobile,jspsych-0.3a-mobile,1,List1,2024-04-29,0,0,projectseed-iowa-production,0.0-0.0-2.0-0.123,eng,6e64b31c6348ac9d094febdaa4fdb26e97e83af1,True,adolescent,574.0,844,390,844,390,5be94074-db34-43bf-a653-836de720ecc0,5be94074-db34-43bf-a653-836de720ecc0,projectseed_production_april2024,4,,419322,494,html-button-response,"Mozilla/5.0 (iPhone; CPU iPhone OS 17_4 like Mac OS X) AppleWebKit/605.1.15 (KHTML, like Gecko) CriOS/124.0.6367.88 Mobile/15E148 Safari/604.1",,1681,980,-100.0,100.0,-25.0,50.0,419209.0,A,574.0,419783.0,124.0,-200.0,0.0,1275.0,-100.0,
0,1234,-999999,0,0,IowaTask-v2.0,-mobile,jspsych-0.3a-mobile,1,List1,2024-04-29,0,0,projectseed-iowa-production,0.0-0.0-2.0-0.124,eng,6e64b31c6348ac9d094febdaa4fdb26e97e83af1,True,adolescent,705.0,844,390,844,390,5be94074-db34-43bf-a653-836de720ecc0,5be94074-db34-43bf-a653-836de720ecc0,projectseed_production_april2024,4,,422339,498,html-button-response,"Mozilla/5.0 (iPhone; CPU iPhone OS 17_4 like Mac OS X) AppleWebKit/605.1.15 (KHTML, like Gecko) CriOS/124.0.6367.88 Mobile/15E148 Safari/604.1",,1681,980,-150.0,100.0,-25.0,50.0,422095.0,B,705.0,422800.0,125.0,0.0,1.0,1375.0,100.0,
0,1234,-999999,0,0,IowaTask-v2.0,-mobile,jspsych-0.3a-mobile,1,List1,2024-04-29,0,0,projectseed-iowa-production,0.0-0.0-2.0-0.125,eng,6e64b31c6348ac9d094febdaa4fdb26e97e83af1,True,adolescent,559.0,844,390,844,390,5be94074-db34-43bf-a653-836de720ecc0,5be94074-db34-43bf-a653-836de720ecc0,projectseed_production_april2024,4,,424210,502,html-button-response,"Mozilla/5.0 (iPhone; CPU iPhone OS 17_4 like Mac OS X) AppleWebKit/605.1.15 (KHTML, like Gecko) CriOS/124.0.6367.88 Mobile/15E148 Safari/604.1",,1681,980,-150.0,100.0,-25.0,50.0,424112.0,B,559.0,424671.0,126.0,0.0,1.0,1475.0,100.0,
0,1234,-999999,0,0,IowaTask-v2.0,-mobile,jspsych-0.3a-mobile,1,List1,2024-04-29,0,0,projectseed-iowa-production,0.0-0.0-2.0-0.126,eng,6e64b31c6348ac9d094febdaa4fdb26e97e83af1,True,adolescent,440.0,844,390,844,390,5be94074-db34-43bf-a653-836de720ecc0,5be94074-db34-43bf-a653-836de720ecc0,projectseed_production_april2024,4,,425962,506,html-button-response,"Mozilla/5.0 (iPhone; CPU iPhone OS 17_4 like Mac OS X) AppleWebKit/605.1.15 (KHTML, like Gecko) CriOS/124.0.6367.88 Mobile/15E148 Safari/604.1",,1681,980,-150.0,100.0,-25.0,50.0,425983.0,B,440.0,426423.0,127.0,0.0,1.0,1575.0,100.0,
0,1234,-999999,0,0,IowaTask-v2.0,-mobile,jspsych-0.3a-mobile,1,List1,2024-04-29,0,0,projectseed-iowa-production,0.0-0.0-2.0-0.127,eng,6e64b31c6348ac9d094febdaa4fdb26e97e83af1,True,adolescent,509.0,844,390,844,390,5be94074-db34-43bf-a653-836de720ecc0,5be94074-db34-43bf-a653-836de720ecc0,projectseed_production_april2024,4,,427782,510,html-button-response,"Mozilla/5.0 (iPhone; CPU iPhone OS 17_4 like Mac OS X) AppleWebKit/605.1.15 (KHTML, like Gecko) CriOS/124.0.6367.88 Mobile/15E148 Safari/604.1",,1681,980,-150.0,100.0,-25.0,50.0,427734.0,B,509.0,428243.0,128.0,0.0,1.0,1675.0,100.0,
0,1234,-999999,0,0,IowaTask-v2.0,-mobile,jspsych-0.3a-mobile,1,List1,2024-04-29,0,0,projectseed-iowa-production,0.0-0.0-2.0-0.128,eng,6e64b31c6348ac9d094febdaa4fdb26e97e83af1,True,adolescent,489.0,844,390,844,390,5be94074-db34-43bf-a653-836de720ecc0,5be94074-db34-43bf-a653-836de720ecc0,projectseed_production_april2024,4,,429582,514,html-button-response,"Mozilla/5.0 (iPhone; CPU iPhone OS 17_4 like Mac OS X) AppleWebKit/605.1.15 (KHTML, like Gecko) CriOS/124.0.6367.88 Mobile/15E148 Safari/604.1",,1681,980,-150.0,100.0,-25.0,50.0,429554.0,B,489.0,430043.0,129.0,0.0,1.0,1775.0,100.0,
0,1234,-999999,0,0,IowaTask-v2.0,-mobile,jspsych-0.3a-mobile,1,List1,2024-04-29,0,0,projectseed-iowa-production,0.0-0.0-2.0-0.129,eng,6e64b31c6348ac9d094febdaa4fdb26e97e83af1,True,adolescent,453.0,844,390,844,390,5be94074-db34-43bf-a653-836de720ecc0,5be94074-db34-43bf-a653-836de720ecc0,projectseed_production_april2024,4,,431348,518,html-button-response,"Mozilla/5.0 (iPhone; CPU iPhone OS 17_4 like Mac OS X) AppleWebKit/605.1.15 (KHTML, like Gecko) CriOS/124.0.6367.88 Mobile/15E148 Safari/604.1",,1681,980,-150.0,100.0,-25.0,50.0,431356.0,B,453.0,431809.0,130.0,0.0,1.0,1875.0,100.0,
0,1234,-999999,0,0,IowaTask-v2.0,-mobile,jspsych-0.3a-mobile,1,List1,2024-04-29,0,0,projectseed-iowa-production,0.0-0.0-2.0-0.130,eng,6e64b31c6348ac9d094febdaa4fdb26e97e83af1,True,adolescent,472.0,844,390,844,390,5be94074-db34-43bf-a653-836de720ecc0,5be94074-db34-43bf-a653-836de720ecc0,projectseed_production_april2024,4,,433132,522,html-button-response,"Mozilla/5.0 (iPhone; CPU iPhone OS 17_4 like Mac OS X) AppleWebKit/605.1.15 (KHTML, like Gecko) CriOS/124.0.6367.88 Mobile/15E148 Safari/604.1",,1681,980,-150.0,100.0,-25.0,50.0,433120.0,B,472.0,433592.0,131.0,0.0,1.0,1975.0,100.0,
0,1234,-999999,0,0,IowaTask-v2.0,-mobile,jspsych-0.3a-mobile,1,List1,2024-04-29,0,0,projectseed-iowa-production,0.0-0.0-2.0-0.131,eng,6e64b31c6348ac9d094febdaa4fdb26e97e83af1,True,adolescent,428.0,844,390,844,390,5be94074-db34-43bf-a653-836de720ecc0,5be94074-db34-43bf-a653-836de720ecc0,projectseed_production_april2024,4,,434871,526,html-button-response,"Mozilla/5.0 (iPhone; CPU iPhone OS 17_4 like Mac OS X) AppleWebKit/605.1.15 (KHTML, like Gecko) CriOS/124.0.6367.88 Mobile/15E148 Safari/604.1",,1681,980,-150.0,100.0,-25.0,50.0,434903.0,B,428.0,435331.0,132.0,0.0,1.0,2075.0,100.0,
0,1234,-999999,0,0,IowaTask-v2.0,-mobile,jspsych-0.3a-mobile,1,List1,2024-04-29,0,0,projectseed-iowa-production,0.0-0.0-2.0-0.132,eng,6e64b31c6348ac9d094febdaa4fdb26e97e83af1,True,adolescent,471.0,844,390,844,390,5be94074-db34-43bf-a653-836de720ecc0,5be94074-db34-43bf-a653-836de720ecc0,projectseed_production_april2024,4,,436653,530,html-button-response,"Mozilla/5.0 (iPhone; CPU iPhone OS 17_4 like Mac OS X) AppleWebKit/605.1.15 (KHTML, like Gecko) CriOS/124.0.6367.88 Mobile/15E148 Safari/604.1",,1681,980,-150.0,100.0,-25.0,50.0,436643.00000000006,B,471.0,437114.00000000006,133.0,0.0,1.0,2175.0,100.0,
0,1234,-999999,0,0,IowaTask-v2.0,-mobile,jspsych-0.3a-mobile,1,List1,2024-04-29,0,0,projectseed-iowa-production,0.0-0.0-2.0-0.133,eng,6e64b31c6348ac9d094febdaa4fdb26e97e83af1,True,adolescent,661.0,844,390,844,390,5be94074-db34-43bf-a653-836de720ecc0,5be94074-db34-43bf-a653-836de720ecc0,projectseed_production_april2024,4,,438624,534,html-button-response,"Mozilla/5.0 (iPhone; CPU iPhone OS 17_4 like Mac OS X) AppleWebKit/605.1.15 (KHTML, like Gecko) CriOS/124.0.6367.88 Mobile/15E148 Safari/604.1",,1681,980,-150.0,100.0,-25.0,50.0,438424.00000000006,D,661.0,439085.00000000006,134.0,0.0,3.0,2225.0,50.0,
0,1234,-999999,0,0,IowaTask-v2.0,-mobile,jspsych-0.3a-mobile,1,List1,2024-04-29,0,0,projectseed-iowa-production,0.0-0.0-2.0-0.134,eng,6e64b31c6348ac9d094febdaa4fdb26e97e83af1,True,adolescent,691.0,844,390,844,390,5be94074-db34-43bf-a653-836de720ecc0,5be94074-db34-43bf-a653-836de720ecc0,projectseed_production_april2024,4,,440626,538,html-button-response,"Mozilla/5.0 (iPhone; CPU iPhone OS 17_4 like Mac OS X) AppleWebKit/605.1.15 (KHTML, like Gecko) CriOS/124.0.6367.88 Mobile/15E148 Safari/604.1",,1681,980,-150.0,100.0,-25.0,50.0,440396.0,A,691.0,441087.0,135.0,-250.0,0.0,2075.0,-150.0,
0,1234,-999999,0,0,IowaTask-v2.0,-mobile,jspsych-0.3a-mobile,1,List1,2024-04-29,0,0,projectseed-iowa-production,0.0-0.0-2.0-0.135,eng,6e64b31c6348ac9d094febdaa4fdb26e97e83af1,True,adolescent,841.0,844,390,844,390,5be94074-db34-43bf-a653-836de720ecc0,5be94074-db34-43bf-a653-836de720ecc0,projectseed_production_april2024,4,,443780,542,html-button-response,"Mozilla/5.0 (iPhone; CPU iPhone OS 17_4 like Mac OS X) AppleWebKit/605.1.15 (KHTML, like Gecko) CriOS/124.0.6367.88 Mobile/15E148 Safari/604.1",,1681,980,100.0,100.0,-25.0,50.0,443400.0,B,841.0,444241.0,136.0,0.0,1.0,2175.0,100.0,
0,1234,-999999,0,0,IowaTask-v2.0,-mobile,jspsych-0.3a-mobile,1,List1,2024-04-29,0,0,projectseed-iowa-production,0.0-0.0-2.0-0.136,eng,6e64b31c6348ac9d094febdaa4fdb26e97e83af1,True,adolescent,1107.0,844,390,844,390,5be94074-db34-43bf-a653-836de720ecc0,5be94074-db34-43bf-a653-836de720ecc0,projectseed_production_april2024,4,,446198,546,html-button-response,"Mozilla/5.0 (iPhone; CPU iPhone OS 17_4 like Mac OS X) AppleWebKit/605.1.15 (KHTML, like Gecko) CriOS/124.0.6367.88 Mobile/15E148 Safari/604.1",,1681,980,100.0,100.0,-25.0,50.0,445551.0,C,1107.0,446658.0,137.0,-75.0,2.0,2150.0,-25.0,
0,1234,-999999,0,0,IowaTask-v2.0,-mobile,jspsych-0.3a-mobile,1,List1,2024-04-29,0,0,projectseed-iowa-production,0.0-0.0-2.0-0.137,eng,6e64b31c6348ac9d094febdaa4fdb26e97e83af1,True,adolescent,544.0,844,390,844,390,5be94074-db34-43bf-a653-836de720ecc0,5be94074-db34-43bf-a653-836de720ecc0,projectseed_production_april2024,4,,449052,550,html-button-response,"Mozilla/5.0 (iPhone; CPU iPhone OS 17_4 like Mac OS X) AppleWebKit/605.1.15 (KHTML, like Gecko) CriOS/124.0.6367.88 Mobile/15E148 Safari/604.1",,1681,980,100.0,100.0,-25.0,50.0,448969.00000000006,B,544.0,449513.00000000006,138.0,0.0,1.0,2250.0,100.0,
0,1234,-999999,0,0,IowaTask-v2.0,-mobile,jspsych-0.3a-mobile,1,List1,2024-04-29,0,0,projectseed-iowa-production,0.0-0.0-2.0-0.138,eng,6e64b31c6348ac9d094febdaa4fdb26e97e83af1,True,adolescent,620.0,844,390,844,390,5be94074-db34-43bf-a653-836de720ecc0,5be94074-db34-43bf-a653-836de720ecc0,projectseed_production_april2024,4,,450987,554,html-button-response,"Mozilla/5.0 (iPhone; CPU iPhone OS 17_4 like Mac OS X) AppleWebKit/605.1.15 (KHTML, like Gecko) CriOS/124.0.6367.88 Mobile/15E148 Safari/604.1",,1681,980,100.0,100.0,-25.0,50.0,450828.00000000006,B,620.0,451448.00000000006,139.0,0.0,1.0,2350.0,100.0,
0,1234,-999999,0,0,IowaTask-v2.0,-mobile,jspsych-0.3a-mobile,1,List1,2024-04-29,0,0,projectseed-iowa-production,0.0-0.0-2.0-0.139,eng,6e64b31c6348ac9d094febdaa4fdb26e97e83af1,True,adolescent,504.0,844,390,844,390,5be94074-db34-43bf-a653-836de720ecc0,5be94074-db34-43bf-a653-836de720ecc0,projectseed_production_april2024,4,,452806,558,html-button-response,"Mozilla/5.0 (iPhone; CPU iPhone OS 17_4 like Mac OS X) AppleWebKit/605.1.15 (KHTML, like Gecko) CriOS/124.0.6367.88 Mobile/15E148 Safari/604.1",,1681,980,100.0,100.0,-25.0,50.0,452764.0,D,504.0,453268.0,140.0,0.0,3.0,2400.0,50.0,
0,1234,-999999,0,0,IowaTask-v2.0,-mobile,jspsych-0.3a-mobile,1,List1,2024-04-29,0,0,projectseed-iowa-production,0.0-0.0-2.0-0.140,eng,6e64b31c6348ac9d094febdaa4fdb26e97e83af1,True,adolescent,647.0,844,390,844,390,5be94074-db34-43bf-a653-836de720ecc0,5be94074-db34-43bf-a653-836de720ecc0,projectseed_production_april2024,4,,454773,562,html-button-response,"Mozilla/5.0 (iPhone; CPU iPhone OS 17_4 like Mac OS X) AppleWebKit/605.1.15 (KHTML, like Gecko) CriOS/124.0.6367.88 Mobile/15E148 Safari/604.1",,1681,980,100.0,100.0,-25.0,50.0,454587.00000000006,A,647.0,455234.00000000006,141.0,0.0,0.0,2500.0,100.0,
0,1234,-999999,0,0,IowaTask-v2.0,-mobile,jspsych-0.3a-mobile,1,List1,2024-04-29,0,0,projectseed-iowa-production,0.0-0.0-2.0-0.141,eng,6e64b31c6348ac9d094febdaa4fdb26e97e83af1,True,adolescent,575.0,844,390,844,390,5be94074-db34-43bf-a653-836de720ecc0,5be94074-db34-43bf-a653-836de720ecc0,projectseed_production_april2024,4,,456660,566,html-button-response,"Mozilla/5.0 (iPhone; CPU iPhone OS 17_4 like Mac OS X) AppleWebKit/605.1.15 (KHTML, like Gecko) CriOS/124.0.6367.88 Mobile/15E148 Safari/604.1",,1681,980,100.0,100.0,-25.0,50.0,456546.00000000006,B,575.0,457121.00000000006,142.0,0.0,1.0,2600.0,100.0,
0,1234,-999999,0,0,IowaTask-v2.0,-mobile,jspsych-0.3a-mobile,1,List1,2024-04-29,0,0,projectseed-iowa-production,0.0-0.0-2.0-0.142,eng,6e64b31c6348ac9d094febdaa4fdb26e97e83af1,True,adolescent,1152.0,844,390,844,390,5be94074-db34-43bf-a653-836de720ecc0,5be94074-db34-43bf-a653-836de720ecc0,projectseed_production_april2024,4,,459123,570,html-button-response,"Mozilla/5.0 (iPhone; CPU iPhone OS 17_4 like Mac OS X) AppleWebKit/605.1.15 (KHTML, like Gecko) CriOS/124.0.6367.88 Mobile/15E148 Safari/604.1",,1681,980,100.0,100.0,-25.0,50.0,458432.0,C,1152.0,459584.0,143.0,-75.0,2.0,2575.0,-25.0,
0,1234,-999999,0,0,IowaTask-v2.0,-mobile,jspsych-0.3a-mobile,1,List1,2024-04-29,0,0,projectseed-iowa-production,0.0-0.0-2.0-0.143,eng,6e64b31c6348ac9d094febdaa4fdb26e97e83af1,True,adolescent,497.0,844,390,844,390,5be94074-db34-43bf-a653-836de720ecc0,5be94074-db34-43bf-a653-836de720ecc0,projectseed_production_april2024,4,,461932,574,html-button-response,"Mozilla/5.0 (iPhone; CPU iPhone OS 17_4 like Mac OS X) AppleWebKit/605.1.15 (KHTML, like Gecko) CriOS/124.0.6367.88 Mobile/15E148 Safari/604.1",,1681,980,100.0,100.0,50.0,50.0,461896.0,D,497.0,462393.0,144.0,0.0,3.0,2625.0,50.0,
0,1234,-999999,0,0,IowaTask-v2.0,-mobile,jspsych-0.3a-mobile,1,List1,2024-04-29,0,0,projectseed-iowa-production,0.0-0.0-2.0-0.144,eng,6e64b31c6348ac9d094febdaa4fdb26e97e83af1,True,adolescent,773.0,844,390,844,390,5be94074-db34-43bf-a653-836de720ecc0,5be94074-db34-43bf-a653-836de720ecc0,projectseed_production_april2024,4,,464016,578,html-button-response,"Mozilla/5.0 (iPhone; CPU iPhone OS 17_4 like Mac OS X) AppleWebKit/605.1.15 (KHTML, like Gecko) CriOS/124.0.6367.88 Mobile/15E148 Safari/604.1",,1681,980,100.0,100.0,50.0,50.0,463704.00000000006,A,773.0,464477.00000000006,145.0,0.0,0.0,2725.0,100.0,
0,1234,-999999,0,0,IowaTask-v2.0,-mobile,jspsych-0.3a-mobile,1,List1,2024-04-29,0,0,projectseed-iowa-production,0.0-0.0-2.0-0.145,eng,6e64b31c6348ac9d094febdaa4fdb26e97e83af1,True,adolescent,556.0,844,390,844,390,5be94074-db34-43bf-a653-836de720ecc0,5be94074-db34-43bf-a653-836de720ecc0,projectseed_production_april2024,4,,465884,582,html-button-response,"Mozilla/5.0 (iPhone; CPU iPhone OS 17_4 like Mac OS X) AppleWebKit/605.1.15 (KHTML, like Gecko) CriOS/124.0.6367.88 Mobile/15E148 Safari/604.1",,1681,980,-50.0,100.0,50.0,50.0,465790.0,B,556.0,466346.0,146.0,0.0,1.0,2825.0,100.0,
0,1234,-999999,0,0,IowaTask-v2.0,-mobile,jspsych-0.3a-mobile,1,List1,2024-04-29,0,0,projectseed-iowa-production,0.0-0.0-2.0-0.146,eng,6e64b31c6348ac9d094febdaa4fdb26e97e83af1,True,adolescent,709.0,844,390,844,390,5be94074-db34-43bf-a653-836de720ecc0,5be94074-db34-43bf-a653-836de720ecc0,projectseed_production_april2024,4,,467905,586,html-button-response,"Mozilla/5.0 (iPhone; CPU iPhone OS 17_4 like Mac OS X) AppleWebKit/605.1.15 (KHTML, like Gecko) CriOS/124.0.6367.88 Mobile/15E148 Safari/604.1",,1681,980,-50.0,100.0,50.0,50.0,467657.0,C,709.0,468366.0,147.0,0.0,2.0,2875.0,50.0,
0,1234,-999999,0,0,IowaTask-v2.0,-mobile,jspsych-0.3a-mobile,1,List1,2024-04-29,0,0,projectseed-iowa-production,0.0-0.0-2.0-0.147,eng,6e64b31c6348ac9d094febdaa4fdb26e97e83af1,True,adolescent,624.0,844,390,844,390,5be94074-db34-43bf-a653-836de720ecc0,5be94074-db34-43bf-a653-836de720ecc0,projectseed_production_april2024,4,,469840,590,html-button-response,"Mozilla/5.0 (iPhone; CPU iPhone OS 17_4 like Mac OS X) AppleWebKit/605.1.15 (KHTML, like Gecko) CriOS/124.0.6367.88 Mobile/15E148 Safari/604.1",,1681,980,-50.0,100.0,50.0,50.0,469677.0,D,624.0,470301.0,148.0,0.0,3.0,2925.0,50.0,
0,1234,-999999,0,0,IowaTask-v2.0,-mobile,jspsych-0.3a-mobile,1,List1,2024-04-29,0,0,projectseed-iowa-production,0.0-0.0-2.0-0.148,eng,6e64b31c6348ac9d094febdaa4fdb26e97e83af1,True,adolescent,489.0,844,390,844,390,5be94074-db34-43bf-a653-836de720ecc0,5be94074-db34-43bf-a653-836de720ecc0,projectseed_production_april2024,4,,471639,594,html-button-response,"Mozilla/5.0 (iPhone; CPU iPhone OS 17_4 like Mac OS X) AppleWebKit/605.1.15 (KHTML, like Gecko) CriOS/124.0.6367.88 Mobile/15E148 Safari/604.1",,1681,980,-50.0,100.0,50.0,50.0,471610.0,C,489.0,472099.0,149.0,0.0,2.0,2975.0,50.0,
0,1234,-999999,0,0,IowaTask-v2.0,-mobile,jspsych-0.3a-mobile,1,List1,2024-04-29,0,0,projectseed-iowa-production,0.0-0.0-2.0-0.149,eng,6e64b31c6348ac9d094febdaa4fdb26e97e83af1,True,adolescent,563.0,844,390,844,390,5be94074-db34-43bf-a653-836de720ecc0,5be94074-db34-43bf-a653-836de720ecc0,projectseed_production_april2024,4,,473510,598,html-button-response,"Mozilla/5.0 (iPhone; CPU iPhone OS 17_4 like Mac OS X) AppleWebKit/605.1.15 (KHTML, like Gecko) CriOS/124.0.6367.88 Mobile/15E148 Safari/604.1",,1681,980,-50.0,100.0,50.0,50.0,473409.00000000006,D,563.0,473972.00000000006,150.0,0.0,3.0,3025.0,50.0,
0,1234,-999999,0,0,IowaTask-v2.0,-mobile,jspsych-0.3a-mobile,1,List1,2024-04-29,0,0,projectseed-iowa-production,0.0-0.0-2.0-0.150,eng,6e64b31c6348ac9d094febdaa4fdb26e97e83af1,True,adolescent,469.0,844,390,844,390,5be94074-db34-43bf-a653-836de720ecc0,5be94074-db34-43bf-a653-836de720ecc0,projectseed_production_april2024,4,,475295,602,html-button-response,"Mozilla/5.0 (iPhone; CPU iPhone OS 17_4 like Mac OS X) AppleWebKit/605.1.15 (KHTML, like Gecko) CriOS/124.0.6367.88 Mobile/15E148 Safari/604.1",,1681,980,-50.0,100.0,50.0,50.0,475287.0,C,469.0,475756.0,151.0,0.0,2.0,3075.0,50.0,
0,1234,-999999,0,0,IowaTask-v2.0,-mobile,jspsych-0.3a-mobile,1,List1,2024-04-29,0,0,projectseed-iowa-production,0.0-0.0-2.0-0.151,eng,6e64b31c6348ac9d094febdaa4fdb26e97e83af1,True,adolescent,639.0,844,390,844,390,5be94074-db34-43bf-a653-836de720ecc0,5be94074-db34-43bf-a653-836de720ecc0,projectseed_production_april2024,4,,477247,606,html-button-response,"Mozilla/5.0 (iPhone; CPU iPhone OS 17_4 like Mac OS X) AppleWebKit/605.1.15 (KHTML, like Gecko) CriOS/124.0.6367.88 Mobile/15E148 Safari/604.1",,1681,980,-50.0,100.0,0.0,50.0,477069.0,D,639.0,477708.0,152.0,0.0,3.0,3125.0,50.0,
0,1234,-999999,0,0,IowaTask-v2.0,-mobile,jspsych-0.3a-mobile,1,List1,2024-04-29,0,0,projectseed-iowa-production,0.0-0.0-2.0-0.152,eng,6e64b31c6348ac9d094febdaa4fdb26e97e83af1,True,adolescent,507.0,844,390,844,390,5be94074-db34-43bf-a653-836de720ecc0,5be94074-db34-43bf-a653-836de720ecc0,projectseed_production_april2024,4,,479066,610,html-button-response,"Mozilla/5.0 (iPhone; CPU iPhone OS 17_4 like Mac OS X) AppleWebKit/605.1.15 (KHTML, like Gecko) CriOS/124.0.6367.88 Mobile/15E148 Safari/604.1",,1681,980,-50.0,100.0,0.0,50.0,479020.0,C,507.0,479527.0,153.0,-50.0,2.0,3125.0,0.0,
0,1234,-999999,0,0,IowaTask-v2.0,-mobile,jspsych-0.3a-mobile,1,List1,2024-04-29,0,0,projectseed-iowa-production,0.0-0.0-2.0-0.153,eng,6e64b31c6348ac9d094febdaa4fdb26e97e83af1,True,adolescent,504.0,844,390,844,390,5be94074-db34-43bf-a653-836de720ecc0,5be94074-db34-43bf-a653-836de720ecc0,projectseed_production_april2024,4,,481882,614,html-button-response,"Mozilla/5.0 (iPhone; CPU iPhone OS 17_4 like Mac OS X) AppleWebKit/605.1.15 (KHTML, like Gecko) CriOS/124.0.6367.88 Mobile/15E148 Safari/604.1",,1681,980,-50.0,100.0,25.0,50.0,481839.0,D,504.0,482343.0,154.0,0.0,3.0,3175.0,50.0,
0,1234,-999999,0,0,IowaTask-v2.0,-mobile,jspsych-0.3a-mobile,1,List1,2024-04-29,0,0,projectseed-iowa-production,0.0-0.0-2.0-0.154,eng,6e64b31c6348ac9d094febdaa4fdb26e97e83af1,True,adolescent,477.0,844,390,844,390,5be94074-db34-43bf-a653-836de720ecc0,5be94074-db34-43bf-a653-836de720ecc0,projectseed_production_april2024,4,,483668,618,html-button-response,"Mozilla/5.0 (iPhone; CPU iPhone OS 17_4 like Mac OS X) AppleWebKit/605.1.15 (KHTML, like Gecko) CriOS/124.0.6367.88 Mobile/15E148 Safari/604.1",,1681,980,-50.0,100.0,25.0,-200.0,483652.0,C,477.0,484129.0,155.0,-25.0,2.0,3200.0,25.0,
0,1234,-999999,0,0,IowaTask-v2.0,-mobile,jspsych-0.3a-mobile,1,List1,2024-04-29,0,0,projectseed-iowa-production,0.0-0.0-2.0-0.155,eng,6e64b31c6348ac9d094febdaa4fdb26e97e83af1,True,adolescent,120.0,844,390,844,390,5be94074-db34-43bf-a653-836de720ecc0,5be94074-db34-43bf-a653-836de720ecc0,projectseed_production_april2024,4,,486098,622,html-button-response,"Mozilla/5.0 (iPhone; CPU iPhone OS 17_4 like Mac OS X) AppleWebKit/605.1.15 (KHTML, like Gecko) CriOS/124.0.6367.88 Mobile/15E148 Safari/604.1",,1681,980,-50.0,100.0,50.0,-200.0,486439.0,D,120.0,486559.0,156.0,-250.0,3.0,3000.0,-200.0,
0,1234,-999999,0,0,IowaTask-v2.0,-mobile,jspsych-0.3a-mobile,1,List1,2024-04-29,0,0,projectseed-iowa-production,0.0-0.0-2.0-0.156,eng,6e64b31c6348ac9d094febdaa4fdb26e97e83af1,True,adolescent,465.0,844,390,844,390,5be94074-db34-43bf-a653-836de720ecc0,5be94074-db34-43bf-a653-836de720ecc0,projectseed_production_april2024,4,,488873,626,html-button-response,"Mozilla/5.0 (iPhone; CPU iPhone OS 17_4 like Mac OS X) AppleWebKit/605.1.15 (KHTML, like Gecko) CriOS/124.0.6367.88 Mobile/15E148 Safari/604.1",,1681,980,-50.0,100.0,50.0,50.0,488869.0,C,465.0,489334.0,157.0,0.0,2.0,3050.0,50.0,
0,1234,-999999,0,0,IowaTask-v2.0,-mobile,jspsych-0.3a-mobile,1,List1,2024-04-29,0,0,projectseed-iowa-production,0.0-0.0-2.0-0.157,eng,6e64b31c6348ac9d094febdaa4fdb26e97e83af1,True,adolescent,565.0,844,390,844,390,5be94074-db34-43bf-a653-836de720ecc0,5be94074-db34-43bf-a653-836de720ecc0,projectseed_production_april2024,4,,490748,630,html-button-response,"Mozilla/5.0 (iPhone; CPU iPhone OS 17_4 like Mac OS X) AppleWebKit/605.1.15 (KHTML, like Gecko) CriOS/124.0.6367.88 Mobile/15E148 Safari/604.1",,1681,980,-50.0,100.0,0.0,50.0,490645.00000000006,A,565.0,491210.00000000006,158.0,-150.0,0.0,3000.0,-50.0,
0,1234,-999999,0,0,IowaTask-v2.0,-mobile,jspsych-0.3a-mobile,1,List1,2024-04-29,0,0,projectseed-iowa-production,0.0-0.0-2.0-0.158,eng,6e64b31c6348ac9d094febdaa4fdb26e97e83af1,True,adolescent,433.0,844,390,844,390,5be94074-db34-43bf-a653-836de720ecc0,5be94074-db34-43bf-a653-836de720ecc0,projectseed_production_april2024,4,,493495,634,html-button-response,"Mozilla/5.0 (iPhone; CPU iPhone OS 17_4 like Mac OS X) AppleWebKit/605.1.15 (KHTML, like Gecko) CriOS/124.0.6367.88 Mobile/15E148 Safari/604.1",,1681,980,-250.0,100.0,0.0,50.0,493524.0,C,433.0,493957.0,159.0,-50.0,2.0,3000.0,0.0,
0,1234,-999999,0,0,IowaTask-v2.0,-mobile,jspsych-0.3a-mobile,1,List1,2024-04-29,0,0,projectseed-iowa-production,0.0-0.0-2.0-0.159,eng,6e64b31c6348ac9d094febdaa4fdb26e97e83af1,True,adolescent,490.0,844,390,844,390,5be94074-db34-43bf-a653-836de720ecc0,5be94074-db34-43bf-a653-836de720ecc0,projectseed_production_april2024,4,,496299,638,html-button-response,"Mozilla/5.0 (iPhone; CPU iPhone OS 17_4 like Mac OS X) AppleWebKit/605.1.15 (KHTML, like Gecko) CriOS/124.0.6367.88 Mobile/15E148 Safari/604.1",,1681,980,-250.0,100.0,-25.0,50.0,496270.0,D,490.0,496760.0,160.0,0.0,3.0,3050.0,50.0,
0,1234,-999999,0,0,IowaTask-v2.0,-mobile,jspsych-0.3a-mobile,1,List1,2024-04-29,0,0,projectseed-iowa-production,0.0-0.0-2.0-0.160,eng,6e64b31c6348ac9d094febdaa4fdb26e97e83af1,True,adolescent,522.0,844,390,844,390,5be94074-db34-43bf-a653-836de720ecc0,5be94074-db34-43bf-a653-836de720ecc0,projectseed_production_april2024,4,,498132,642,html-button-response,"Mozilla/5.0 (iPhone; CPU iPhone OS 17_4 like Mac OS X) AppleWebKit/605.1.15 (KHTML, like Gecko) CriOS/124.0.6367.88 Mobile/15E148 Safari/604.1",,1681,980,-250.0,100.0,-25.0,50.0,498072.0,D,522.0,498594.0,161.0,0.0,3.0,3100.0,50.0,
0,1234,-999999,0,0,IowaTask-v2.0,-mobile,jspsych-0.3a-mobile,1,List1,2024-04-29,0,0,projectseed-iowa-production,0.0-0.0-2.0-0.161,eng,6e64b31c6348ac9d094febdaa4fdb26e97e83af1,True,adolescent,803.0,844,390,844,390,5be94074-db34-43bf-a653-836de720ecc0,5be94074-db34-43bf-a653-836de720ecc0,projectseed_production_april2024,4,,500251,646,html-button-response,"Mozilla/5.0 (iPhone; CPU iPhone OS 17_4 like Mac OS X) AppleWebKit/605.1.15 (KHTML, like Gecko) CriOS/124.0.6367.88 Mobile/15E148 Safari/604.1",,1681,980,-250.0,100.0,-25.0,50.0,499910.0,A,803.0,500713.0,162.0,-350.0,0.0,2850.0,-250.0,
0,1234,-999999,0,0,IowaTask-v2.0,-mobile,jspsych-0.3a-mobile,1,List1,2024-04-29,0,0,projectseed-iowa-production,0.0-0.0-2.0-0.162,eng,6e64b31c6348ac9d094febdaa4fdb26e97e83af1,True,adolescent,137.0,844,390,844,390,5be94074-db34-43bf-a653-836de720ecc0,5be94074-db34-43bf-a653-836de720ecc0,projectseed_production_april2024,4,,502699,650,html-button-response,"Mozilla/5.0 (iPhone; CPU iPhone OS 17_4 like Mac OS X) AppleWebKit/605.1.15 (KHTML, like Gecko) CriOS/124.0.6367.88 Mobile/15E148 Safari/604.1",,1681,980,-100.0,100.0,-25.0,50.0,503023.0,C,137.0,503160.0,163.0,-75.0,2.0,2825.0,-25.0,
0,1234,-999999,0,0,IowaTask-v2.0,-mobile,jspsych-0.3a-mobile,1,List1,2024-04-29,0,0,projectseed-iowa-production,0.0-0.0-2.0-0.163,eng,6e64b31c6348ac9d094febdaa4fdb26e97e83af1,True,adolescent,124.0,844,390,844,390,5be94074-db34-43bf-a653-836de720ecc0,5be94074-db34-43bf-a653-836de720ecc0,projectseed_production_april2024,4,,505133,654,html-button-response,"Mozilla/5.0 (iPhone; CPU iPhone OS 17_4 like Mac OS X) AppleWebKit/605.1.15 (KHTML, like Gecko) CriOS/124.0.6367.88 Mobile/15E148 Safari/604.1",,1681,980,-100.0,100.0,-25.0,50.0,505470.0,D,124.0,505594.0,164.0,0.0,3.0,2875.0,50.0,
0,1234,-999999,0,0,IowaTask-v2.0,-mobile,jspsych-0.3a-mobile,1,List1,2024-04-29,0,0,projectseed-iowa-production,0.0-0.0-2.0-0.164,eng,6e64b31c6348ac9d094febdaa4fdb26e97e83af1,True,adolescent,445.0,844,390,844,390,5be94074-db34-43bf-a653-836de720ecc0,5be94074-db34-43bf-a653-836de720ecc0,projectseed_production_april2024,4,,506888,658,html-button-response,"Mozilla/5.0 (iPhone; CPU iPhone OS 17_4 like Mac OS X) AppleWebKit/605.1.15 (KHTML, like Gecko) CriOS/124.0.6367.88 Mobile/15E148 Safari/604.1",,1681,980,-100.0,100.0,-25.0,50.0,506905.0,C,445.0,507350.0,165.0,-75.0,2.0,2850.0,-25.0,
0,1234,-999999,0,0,IowaTask-v2.0,-mobile,jspsych-0.3a-mobile,1,List1,2024-04-29,0,0,projectseed-iowa-production,0.0-0.0-2.0-0.165,eng,6e64b31c6348ac9d094febdaa4fdb26e97e83af1,True,adolescent,594.0,844,390,844,390,5be94074-db34-43bf-a653-836de720ecc0,5be94074-db34-43bf-a653-836de720ecc0,projectseed_production_april2024,4,,509798,662,html-button-response,"Mozilla/5.0 (iPhone; CPU iPhone OS 17_4 like Mac OS X) AppleWebKit/605.1.15 (KHTML, like Gecko) CriOS/124.0.6367.88 Mobile/15E148 Safari/604.1",,1681,980,-100.0,100.0,50.0,50.0,509665.0,D,594.0,510259.0,166.0,0.0,3.0,2900.0,50.0,
0,1234,-999999,0,0,IowaTask-v2.0,-mobile,jspsych-0.3a-mobile,1,List1,2024-04-29,0,0,projectseed-iowa-production,0.0-0.0-2.0-0.166,eng,6e64b31c6348ac9d094febdaa4fdb26e97e83af1,True,adolescent,535.0,844,390,844,390,5be94074-db34-43bf-a653-836de720ecc0,5be94074-db34-43bf-a653-836de720ecc0,projectseed_production_april2024,4,,511646,666,html-button-response,"Mozilla/5.0 (iPhone; CPU iPhone OS 17_4 like Mac OS X) AppleWebKit/605.1.15 (KHTML, like Gecko) CriOS/124.0.6367.88 Mobile/15E148 Safari/604.1",,1681,980,-100.0,100.0,50.0,50.0,511572.0,D,535.0,512107.0,167.0,0.0,3.0,2950.0,50.0,
0,1234,-999999,0,0,IowaTask-v2.0,-mobile,jspsych-0.3a-mobile,1,List1,2024-04-29,0,0,projectseed-iowa-production,0.0-0.0-2.0-0.167,eng,6e64b31c6348ac9d094febdaa4fdb26e97e83af1,True,adolescent,540.0,844,390,844,390,5be94074-db34-43bf-a653-836de720ecc0,5be94074-db34-43bf-a653-836de720ecc0,projectseed_production_april2024,4,,513498,670,html-button-response,"Mozilla/5.0 (iPhone; CPU iPhone OS 17_4 like Mac OS X) AppleWebKit/605.1.15 (KHTML, like Gecko) CriOS/124.0.6367.88 Mobile/15E148 Safari/604.1",,1681,980,-100.0,100.0,50.0,50.0,513419.00000000006,D,540.0,513959.00000000006,168.0,0.0,3.0,3000.0,50.0,
