Deck_ACC,Deck_CRESP,Deck_DurationError,Deck_OnsetDelay,Deck_OnsetToOnsetTime,ExperimentName,ExperimentPlatform,ExperimentVersion,List1_Cycle,Running,cycle_start_date,day,expected_trial_count,experiment_name,internal_node_id,lang,last_commit,on_mobile,role,rt,screen_availHeight,screen_availWidth,screen_height,screen_width,session_id,session_uuid,study_id,subject_id,task_section,time_elapsed,trial_index,trial_type,useragent,view_history,window_innerHeight,window_innerWidth,DeckA,DeckB,DeckC,DeckD,Deck_OnsetTime,Deck_RESP,Deck_RT,Deck_RTTime,List1_Sample,loss_event,response,totalsum,var,stimulus
0,1234,-999999,0,0,IowaTask-v2.0,-mobile,jspsych-0.3a-mobile,1,List1,2024-04-29,0,0,projectseed-iowa-production,0.0-0.0-2.0-0.0,eng,6e64b31c6348ac9d094febdaa4fdb26e97e83af1,True,adolescent,3185.0,800,360,800,360,e31d4e7d-80c0-4f50-ae05-859061021616,e31d4e7d-80c0-4f50-ae05-859061021616,projectseed_production_april2024,5,,54639,2,html-button-response,"Mozilla/5.0 (Linux; Android 10; K) AppleWebKit/537.36 (KHTML, like Gecko) Chrome/124.0.0.0 Mobile Safari/537.36",,1824,980,100.0,100.0,50.0,50.0,54610.70000001788,D,3185.0,57795.70000001788,1.0,0.0,3.0,2050.0,50.0,
0,1234,-999999,0,0,IowaTask-v2.0,-mobile,jspsych-0.3a-mobile,1,List1,2024-04-29,0,0,projectseed-iowa-production,0.0-0.0-2.0-0.1,eng,6e64b31c6348ac9d094febdaa4fdb26e97e83af1,True,adolescent,2132.0,800,360,800,360,e31d4e7d-80c0-4f50-ae05-859061021616,e31d4e7d-80c0-4f50-ae05-859061021616,projectseed_production_april2024,5,,58083,6,html-button-response,"Mozilla/5.0 (Linux; Android 10; K) AppleWebKit/537.36 (KHTML, like Gecko) Chrome/124.0.0.0 Mobile Safari/537.36",,1824,980,100.0,100.0,50.0,50.0,59106.80000001192,D,2132.0,61238.80000001192,2.0,0.0,3.0,2100.0,50.0,
0,1234,-999999,0,0,IowaTask-v2.0,-mobile,jspsych-0.3a-mobile,1,List1,2024-04-29,0,0,projectseed-iowa-production,0.0-0.0-2.0-0.2,eng,6e64b31c6348ac9d094febdaa4fdb26e97e83af1,True,adolescent,621.0,800,360,800,360,e31d4e7d-80c0-4f50-ae05-859061021616,e31d4e7d-80c0-4f50-ae05-859061021616,projectseed_production_april2024,5,,60021,10,html-button-response,"Mozilla/5.0 (Linux; Android 10; K) AppleWebKit/537.36 (KHTML, like Gecko) Chrome/124.0.0.0 Mobile Safari/537.36",,1824,980,100.0,100.0,50.0,50.0,62555.5,D,621.0,63176.5,3.0,0.0,3.0,2150.0,50.0,
0,1234,-999999,0,0,IowaTask-v2.0,-mobile,jspsych-0.3a-mobile,1,List1,2024-04-29,0,0,projectseed-iowa-production,0.0-0.0-2.0-0.3,eng,6e64b31c6348ac9d094febdaa4fdb26e97e83af1,True,adolescent,852.0,800,360,800,360,e31d4e7d-80c0-4f50-ae05-859061021616,e31d4e7d-80c0-4f50-ae05-859061021616,projectseed_production_april2024,5,,62190,14,html-button-response,"Mozilla/5.0 (Linux; Android 10; K) AppleWebKit/537.36 (KHTML, like Gecko) Chrome/124.0.0.0 Mobile Safari/537.36",,1824,980,100.0,100.0,50.0,50.0,64494.0,C,852.0,65346.0,4.0,0.0,2.0,2200.0,50.0,
0,1234,-999999,0,0,IowaTask-v2.0,-mobile,jspsych-0.3a-mobile,1,List1,2024-04-29,0,0,projectseed-iowa-production,0.0-0.0-2.0-0.4,eng,6e64b31c6348ac9d094febdaa4fdb26e97e83af1,True,adolescent,606.0,800,360,800,360,e31d4e7d-80c0-4f50-ae05-859061021616,e31d4e7d-80c0-4f50-ae05-859061021616,projectseed_production_april2024,5,,64114,18,html-button-response,"Mozilla/5.0 (Linux; Android 10; K) AppleWebKit/537.36 (KHTML, like Gecko) Chrome/124.0.0.0 Mobile Safari/537.36",,1824,980,100.0,100.0,0.0,50.0,66663.59999999404,D,606.0,67269.59999999404,5.0,0.0,3.0,2250.0,50.0,
0,1234,-999999,0,0,IowaTask-v2.0,-mobile,jspsych-0.3a-mobile,1,List1,2024-04-29,0,0,projectseed-iowa-production,0.0-0.0-2.0-0.5,eng,6e64b31c6348ac9d094febdaa4fdb26e97e83af1,True,adolescent,585.0,800,360,800,360,e31d4e7d-80c0-4f50-ae05-859061021616,e31d4e7d-80c0-4f50-ae05-859061021616,projectseed_production_april2024,5,,66020,22,html-button-response,"Mozilla/5.0 (Linux; Android 10; K) AppleWebKit/537.36 (KHTML, like Gecko) Chrome/124.0.0.0 Mobile Safari/537.36",,1824,980,100.0,100.0,0.0,-200.0,68591.20000001788,D,585.0,69176.20000001788,6.0,-250.0,3.0,2050.0,-200.0,
0,1234,-999999,0,0,IowaTask-v2.0,-mobile,jspsych-0.3a-mobile,1,List1,2024-04-29,0,0,projectseed-iowa-production,0.0-0.0-2.0-0.6,eng,6e64b31c6348ac9d094febdaa4fdb26e97e83af1,True,adolescent,865.0,800,360,800,360,e31d4e7d-80c0-4f50-ae05-859061021616,e31d4e7d-80c0-4f50-ae05-859061021616,projectseed_production_april2024,5,,69204,26,html-button-response,"Mozilla/5.0 (Linux; Android 10; K) AppleWebKit/537.36 (KHTML, like Gecko) Chrome/124.0.0.0 Mobile Safari/537.36",,1824,980,100.0,100.0,0.0,50.0,71495.30000001192,D,865.0,72360.30000001192,7.0,0.0,3.0,2100.0,50.0,
0,1234,-999999,0,0,IowaTask-v2.0,-mobile,jspsych-0.3a-mobile,1,List1,2024-04-29,0,0,projectseed-iowa-production,0.0-0.0-2.0-0.7,eng,6e64b31c6348ac9d094febdaa4fdb26e97e83af1,True,adolescent,757.0,800,360,800,360,e31d4e7d-80c0-4f50-ae05-859061021616,e31d4e7d-80c0-4f50-ae05-859061021616,projectseed_production_april2024,5,,71279,30,html-button-response,"Mozilla/5.0 (Linux; Android 10; K) AppleWebKit/537.36 (KHTML, like Gecko) Chrome/124.0.0.0 Mobile Safari/537.36",,1824,980,100.0,100.0,0.0,50.0,73678.90000000596,B,757.0,74435.90000000596,8.0,0.0,1.0,2200.0,100.0,
0,1234,-999999,0,0,IowaTask-v2.0,-mobile,jspsych-0.3a-mobile,1,List1,2024-04-29,0,0,projectseed-iowa-production,0.0-0.0-2.0-0.8,eng,6e64b31c6348ac9d094febdaa4fdb26e97e83af1,True,adolescent,1473.0,800,360,800,360,e31d4e7d-80c0-4f50-ae05-859061021616,e31d4e7d-80c0-4f50-ae05-859061021616,projectseed_production_april2024,5,,74075,34,html-button-response,"Mozilla/5.0 (Linux; Android 10; K) AppleWebKit/537.36 (KHTML, like Gecko) Chrome/124.0.0.0 Mobile Safari/537.36",,1824,980,100.0,100.0,0.0,50.0,75757.80000001192,D,1473.0,77230.80000001192,9.0,0.0,3.0,2250.0,50.0,
0,1234,-999999,0,0,IowaTask-v2.0,-mobile,jspsych-0.3a-mobile,1,List1,2024-04-29,0,0,projectseed-iowa-production,0.0-0.0-2.0-0.9,eng,6e64b31c6348ac9d094febdaa4fdb26e97e83af1,True,adolescent,944.0,800,360,800,360,e31d4e7d-80c0-4f50-ae05-859061021616,e31d4e7d-80c0-4f50-ae05-859061021616,projectseed_production_april2024,5,,76338,38,html-button-response,"Mozilla/5.0 (Linux; Android 10; K) AppleWebKit/537.36 (KHTML, like Gecko) Chrome/124.0.0.0 Mobile Safari/537.36",,1824,980,100.0,100.0,0.0,50.0,78549.20000001788,D,944.0,79493.20000001788,10.0,0.0,3.0,2300.0,50.0,
0,1234,-999999,0,0,IowaTask-v2.0,-mobile,jspsych-0.3a-mobile,1,List1,2024-04-29,0,0,projectseed-iowa-production,0.0-0.0-2.0-0.10,eng,6e64b31c6348ac9d094febdaa4fdb26e97e83af1,True,adolescent,571.0,800,360,800,360,e31d4e7d-80c0-4f50-ae05-859061021616,e31d4e7d-80c0-4f50-ae05-859061021616,projectseed_production_april2024,5,,78223,42,html-button-response,"Mozilla/5.0 (Linux; Android 10; K) AppleWebKit/537.36 (KHTML, like Gecko) Chrome/124.0.0.0 Mobile Safari/537.36",,1824,980,100.0,100.0,0.0,50.0,80809.20000001788,B,571.0,81380.20000001788,11.0,0.0,1.0,2400.0,100.0,
0,1234,-999999,0,0,IowaTask-v2.0,-mobile,jspsych-0.3a-mobile,1,List1,2024-04-29,0,0,projectseed-iowa-production,0.0-0.0-2.0-0.11,eng,6e64b31c6348ac9d094febdaa4fdb26e97e83af1,True,adolescent,468.0,800,360,800,360,e31d4e7d-80c0-4f50-ae05-859061021616,e31d4e7d-80c0-4f50-ae05-859061021616,projectseed_production_april2024,5,,80011,46,html-button-response,"Mozilla/5.0 (Linux; Android 10; K) AppleWebKit/537.36 (KHTML, like Gecko) Chrome/124.0.0.0 Mobile Safari/537.36",,1824,980,100.0,100.0,0.0,50.0,82698.5,B,468.0,83166.5,12.0,0.0,1.0,2500.0,100.0,
0,1234,-999999,0,0,IowaTask-v2.0,-mobile,jspsych-0.3a-mobile,1,List1,2024-04-29,0,0,projectseed-iowa-production,0.0-0.0-2.0-0.12,eng,6e64b31c6348ac9d094febdaa4fdb26e97e83af1,True,adolescent,356.0,800,360,800,360,e31d4e7d-80c0-4f50-ae05-859061021616,e31d4e7d-80c0-4f50-ae05-859061021616,projectseed_production_april2024,5,,81686,50,html-button-response,"Mozilla/5.0 (Linux; Android 10; K) AppleWebKit/537.36 (KHTML, like Gecko) Chrome/124.0.0.0 Mobile Safari/537.36",,1824,980,100.0,100.0,0.0,50.0,84485.90000000596,B,356.0,84841.90000000596,13.0,0.0,1.0,2600.0,100.0,
0,1234,-999999,0,0,IowaTask-v2.0,-mobile,jspsych-0.3a-mobile,1,List1,2024-04-29,0,0,projectseed-iowa-production,0.0-0.0-2.0-0.13,eng,6e64b31c6348ac9d094febdaa4fdb26e97e83af1,True,adolescent,358.0,800,360,800,360,e31d4e7d-80c0-4f50-ae05-859061021616,e31d4e7d-80c0-4f50-ae05-859061021616,projectseed_production_april2024,5,,83363,54,html-button-response,"Mozilla/5.0 (Linux; Android 10; K) AppleWebKit/537.36 (KHTML, like Gecko) Chrome/124.0.0.0 Mobile Safari/537.36",,1824,980,100.0,100.0,0.0,50.0,86160.59999999404,B,358.0,86518.59999999404,14.0,0.0,1.0,2700.0,100.0,
0,1234,-999999,0,0,IowaTask-v2.0,-mobile,jspsych-0.3a-mobile,1,List1,2024-04-29,0,0,projectseed-iowa-production,0.0-0.0-2.0-0.14,eng,6e64b31c6348ac9d094febdaa4fdb26e97e83af1,True,adolescent,313.0,800,360,800,360,e31d4e7d-80c0-4f50-ae05-859061021616,e31d4e7d-80c0-4f50-ae05-859061021616,projectseed_production_april2024,5,,84997,58,html-button-response,"Mozilla/5.0 (Linux; Android 10; K) AppleWebKit/537.36 (KHTML, like Gecko) Chrome/124.0.0.0 Mobile Safari/537.36",,1824,980,100.0,100.0,0.0,50.0,87840.30000001192,B,313.0,88153.30000001192,15.0,0.0,1.0,2800.0,100.0,
0,1234,-999999,0,0,IowaTask-v2.0,-mobile,jspsych-0.3a-mobile,1,List1,2024-04-29,0,0,projectseed-iowa-production,0.0-0.0-2.0-0.15,eng,6e64b31c6348ac9d094febdaa4fdb26e97e83af1,True,adolescent,385.0,800,360,800,360,e31d4e7d-80c0-4f50-ae05-859061021616,e31d4e7d-80c0-4f50-ae05-859061021616,projectseed_production_april2024,5,,86710,62,html-button-response,"Mozilla/5.0 (Linux; Android 10; K) AppleWebKit/537.36 (KHTML, like Gecko) Chrome/124.0.0.0 Mobile Safari/537.36",,1824,980,100.0,100.0,0.0,50.0,89481.40000000596,B,385.0,89866.40000000596,16.0,0.0,1.0,2900.0,100.0,
0,1234,-999999,0,0,IowaTask-v2.0,-mobile,jspsych-0.3a-mobile,1,List1,2024-04-29,0,0,projectseed-iowa-production,0.0-0.0-2.0-0.16,eng,6e64b31c6348ac9d094febdaa4fdb26e97e83af1,True,adolescent,351.0,800,360,800,360,e31d4e7d-80c0-4f50-ae05-859061021616,e31d4e7d-80c0-4f50-ae05-859061021616,projectseed_production_april2024,5,,88387,66,html-button-response,"Mozilla/5.0 (Linux; Android 10; K) AppleWebKit/537.36 (KHTML, like Gecko) Chrome/124.0.0.0 Mobile Safari/537.36",,1824,980,100.0,100.0,0.0,50.0,91191.70000001788,B,351.0,91542.70000001788,17.0,0.0,1.0,3000.0,100.0,
0,1234,-999999,0,0,IowaTask-v2.0,-mobile,jspsych-0.3a-mobile,1,List1,2024-04-29,0,0,projectseed-iowa-production,0.0-0.0-2.0-0.17,eng,6e64b31c6348ac9d094febdaa4fdb26e97e83af1,True,adolescent,385.0,800,360,800,360,e31d4e7d-80c0-4f50-ae05-859061021616,e31d4e7d-80c0-4f50-ae05-859061021616,projectseed_production_april2024,5,,90097,70,html-button-response,"Mozilla/5.0 (Linux; Android 10; K) AppleWebKit/537.36 (KHTML, like Gecko) Chrome/124.0.0.0 Mobile Safari/537.36",,1824,980,100.0,-1150.0,0.0,50.0,92868.09999999404,B,385.0,93253.09999999404,18.0,-1250.0,1.0,1850.0,-1150.0,
0,1234,-999999,0,0,IowaTask-v2.0,-mobile,jspsych-0.3a-mobile,1,List1,2024-04-29,0,0,projectseed-iowa-production,0.0-0.0-2.0-0.18,eng,6e64b31c6348ac9d094febdaa4fdb26e97e83af1,True,adolescent,769.0,800,360,800,360,e31d4e7d-80c0-4f50-ae05-859061021616,e31d4e7d-80c0-4f50-ae05-859061021616,projectseed_production_april2024,5,,93191,74,html-button-response,"Mozilla/5.0 (Linux; Android 10; K) AppleWebKit/537.36 (KHTML, like Gecko) Chrome/124.0.0.0 Mobile Safari/537.36",,1824,980,100.0,100.0,0.0,50.0,95577.59999999404,A,769.0,96346.59999999404,19.0,0.0,0.0,1950.0,100.0,
0,1234,-999999,0,0,IowaTask-v2.0,-mobile,jspsych-0.3a-mobile,1,List1,2024-04-29,0,0,projectseed-iowa-production,0.0-0.0-2.0-0.19,eng,6e64b31c6348ac9d094febdaa4fdb26e97e83af1,True,adolescent,440.0,800,360,800,360,e31d4e7d-80c0-4f50-ae05-859061021616,e31d4e7d-80c0-4f50-ae05-859061021616,projectseed_production_april2024,5,,94947,78,html-button-response,"Mozilla/5.0 (Linux; Android 10; K) AppleWebKit/537.36 (KHTML, like Gecko) Chrome/124.0.0.0 Mobile Safari/537.36",,1824,980,-250.0,100.0,0.0,50.0,97662.30000001192,A,440.0,98102.30000001192,20.0,-350.0,0.0,1700.0,-250.0,
0,1234,-999999,0,0,IowaTask-v2.0,-mobile,jspsych-0.3a-mobile,1,List1,2024-04-29,0,0,projectseed-iowa-production,0.0-0.0-2.0-0.20,eng,6e64b31c6348ac9d094febdaa4fdb26e97e83af1,True,adolescent,809.0,800,360,800,360,e31d4e7d-80c0-4f50-ae05-859061021616,e31d4e7d-80c0-4f50-ae05-859061021616,projectseed_production_april2024,5,,98084,82,html-button-response,"Mozilla/5.0 (Linux; Android 10; K) AppleWebKit/537.36 (KHTML, like Gecko) Chrome/124.0.0.0 Mobile Safari/537.36",,1824,980,-200.0,100.0,0.0,50.0,100430.90000000596,A,809.0,101239.90000000596,21.0,-300.0,0.0,1500.0,-200.0,
0,1234,-999999,0,0,IowaTask-v2.0,-mobile,jspsych-0.3a-mobile,1,List1,2024-04-29,0,0,projectseed-iowa-production,0.0-0.0-2.0-0.21,eng,6e64b31c6348ac9d094febdaa4fdb26e97e83af1,True,adolescent,514.0,800,360,800,360,e31d4e7d-80c0-4f50-ae05-859061021616,e31d4e7d-80c0-4f50-ae05-859061021616,projectseed_production_april2024,5,,100913,86,html-button-response,"Mozilla/5.0 (Linux; Android 10; K) AppleWebKit/537.36 (KHTML, like Gecko) Chrome/124.0.0.0 Mobile Safari/537.36",,1824,980,100.0,100.0,0.0,50.0,103554.90000000596,A,514.0,104068.90000000596,22.0,0.0,0.0,1600.0,100.0,
0,1234,-999999,0,0,IowaTask-v2.0,-mobile,jspsych-0.3a-mobile,1,List1,2024-04-29,0,0,projectseed-iowa-production,0.0-0.0-2.0-0.22,eng,6e64b31c6348ac9d094febdaa4fdb26e97e83af1,True,adolescent,809.0,800,360,800,360,e31d4e7d-80c0-4f50-ae05-859061021616,e31d4e7d-80c0-4f50-ae05-859061021616,projectseed_production_april2024,5,,103041,90,html-button-response,"Mozilla/5.0 (Linux; Android 10; K) AppleWebKit/537.36 (KHTML, like Gecko) Chrome/124.0.0.0 Mobile Safari/537.36",,1824,980,-100.0,100.0,0.0,50.0,105387.5,A,809.0,106196.5,23.0,-200.0,0.0,1500.0,-100.0,
0,1234,-999999,0,0,IowaTask-v2.0,-mobile,jspsych-0.3a-mobile,1,List1,2024-04-29,0,0,projectseed-iowa-production,0.0-0.0-2.0-0.23,eng,6e64b31c6348ac9d094febdaa4fdb26e97e83af1,True,adolescent,492.0,800,360,800,360,e31d4e7d-80c0-4f50-ae05-859061021616,e31d4e7d-80c0-4f50-ae05-859061021616,projectseed_production_april2024,5,,105854,94,html-button-response,"Mozilla/5.0 (Linux; Android 10; K) AppleWebKit/537.36 (KHTML, like Gecko) Chrome/124.0.0.0 Mobile Safari/537.36",,1824,980,100.0,100.0,0.0,50.0,108518.30000001192,D,492.0,109010.30000001192,24.0,0.0,3.0,1550.0,50.0,
0,1234,-999999,0,0,IowaTask-v2.0,-mobile,jspsych-0.3a-mobile,1,List1,2024-04-29,0,0,projectseed-iowa-production,0.0-0.0-2.0-0.24,eng,6e64b31c6348ac9d094febdaa4fdb26e97e83af1,True,adolescent,525.0,800,360,800,360,e31d4e7d-80c0-4f50-ae05-859061021616,e31d4e7d-80c0-4f50-ae05-859061021616,projectseed_production_april2024,5,,107699,98,html-button-response,"Mozilla/5.0 (Linux; Android 10; K) AppleWebKit/537.36 (KHTML, like Gecko) Chrome/124.0.0.0 Mobile Safari/537.36",,1824,980,100.0,100.0,0.0,50.0,110329.90000000596,D,525.0,110854.90000000596,25.0,0.0,3.0,1600.0,50.0,
0,1234,-999999,0,0,IowaTask-v2.0,-mobile,jspsych-0.3a-mobile,1,List1,2024-04-29,0,0,projectseed-iowa-production,0.0-0.0-2.0-0.25,eng,6e64b31c6348ac9d094febdaa4fdb26e97e83af1,True,adolescent,750.0,800,360,800,360,e31d4e7d-80c0-4f50-ae05-859061021616,e31d4e7d-80c0-4f50-ae05-859061021616,projectseed_production_april2024,5,,109769,102,html-button-response,"Mozilla/5.0 (Linux; Android 10; K) AppleWebKit/537.36 (KHTML, like Gecko) Chrome/124.0.0.0 Mobile Safari/537.36",,1824,980,100.0,100.0,0.0,50.0,112174.30000001192,B,750.0,112924.30000001192,26.0,0.0,1.0,1700.0,100.0,
0,1234,-999999,0,0,IowaTask-v2.0,-mobile,jspsych-0.3a-mobile,1,List1,2024-04-29,0,0,projectseed-iowa-production,0.0-0.0-2.0-0.26,eng,6e64b31c6348ac9d094febdaa4fdb26e97e83af1,True,adolescent,913.0,800,360,800,360,e31d4e7d-80c0-4f50-ae05-859061021616,e31d4e7d-80c0-4f50-ae05-859061021616,projectseed_production_april2024,5,,111996,106,html-button-response,"Mozilla/5.0 (Linux; Android 10; K) AppleWebKit/537.36 (KHTML, like Gecko) Chrome/124.0.0.0 Mobile Safari/537.36",,1824,980,100.0,100.0,0.0,50.0,114238.5,C,913.0,115151.5,27.0,-50.0,2.0,1700.0,0.0,
0,1234,-999999,0,0,IowaTask-v2.0,-mobile,jspsych-0.3a-mobile,1,List1,2024-04-29,0,0,projectseed-iowa-production,0.0-0.0-2.0-0.27,eng,6e64b31c6348ac9d094febdaa4fdb26e97e83af1,True,adolescent,533.0,800,360,800,360,e31d4e7d-80c0-4f50-ae05-859061021616,e31d4e7d-80c0-4f50-ae05-859061021616,projectseed_production_april2024,5,,114842,110,html-button-response,"Mozilla/5.0 (Linux; Android 10; K) AppleWebKit/537.36 (KHTML, like Gecko) Chrome/124.0.0.0 Mobile Safari/537.36",,1824,980,100.0,100.0,-25.0,50.0,117464.59999999404,D,533.0,117997.59999999404,28.0,0.0,3.0,1750.0,50.0,
0,1234,-999999,0,0,IowaTask-v2.0,-mobile,jspsych-0.3a-mobile,1,List1,2024-04-29,0,0,projectseed-iowa-production,0.0-0.0-2.0-0.28,eng,6e64b31c6348ac9d094febdaa4fdb26e97e83af1,True,adolescent,485.0,800,360,800,360,e31d4e7d-80c0-4f50-ae05-859061021616,e31d4e7d-80c0-4f50-ae05-859061021616,projectseed_production_april2024,5,,116643,114,html-button-response,"Mozilla/5.0 (Linux; Android 10; K) AppleWebKit/537.36 (KHTML, like Gecko) Chrome/124.0.0.0 Mobile Safari/537.36",,1824,980,100.0,100.0,-25.0,50.0,119314.30000001192,D,485.0,119799.30000001192,29.0,0.0,3.0,1800.0,50.0,
0,1234,-999999,0,0,IowaTask-v2.0,-mobile,jspsych-0.3a-mobile,1,List1,2024-04-29,0,0,projectseed-iowa-production,0.0-0.0-2.0-0.29,eng,6e64b31c6348ac9d094febdaa4fdb26e97e83af1,True,adolescent,431.0,800,360,800,360,e31d4e7d-80c0-4f50-ae05-859061021616,e31d4e7d-80c0-4f50-ae05-859061021616,projectseed_production_april2024,5,,118396,118,html-button-response,"Mozilla/5.0 (Linux; Android 10; K) AppleWebKit/537.36 (KHTML, like Gecko) Chrome/124.0.0.0 Mobile Safari/537.36",,1824,980,100.0,100.0,-25.0,50.0,121120.70000001788,D,431.0,121551.70000001788,30.0,0.0,3.0,1850.0,50.0,
0,1234,-999999,0,0,IowaTask-v2.0,-mobile,jspsych-0.3a-mobile,1,List1,2024-04-29,0,0,projectseed-iowa-production,0.0-0.0-2.0-0.30,eng,6e64b31c6348ac9d094febdaa4fdb26e97e83af1,True,adolescent,443.0,800,360,800,360,e31d4e7d-80c0-4f50-ae05-859061021616,e31d4e7d-80c0-4f50-ae05-859061021616,projectseed_production_april2024,5,,120157,122,html-button-response,"Mozilla/5.0 (Linux; Android 10; K) AppleWebKit/537.36 (KHTML, like Gecko) Chrome/124.0.0.0 Mobile Safari/537.36",,1824,980,100.0,100.0,-25.0,50.0,122869.30000001192,D,443.0,123312.30000001192,31.0,0.0,3.0,1900.0,50.0,
0,1234,-999999,0,0,IowaTask-v2.0,-mobile,jspsych-0.3a-mobile,1,List1,2024-04-29,0,0,projectseed-iowa-production,0.0-0.0-2.0-0.31,eng,6e64b31c6348ac9d094febdaa4fdb26e97e83af1,True,adolescent,386.0,800,360,800,360,e31d4e7d-80c0-4f50-ae05-859061021616,e31d4e7d-80c0-4f50-ae05-859061021616,projectseed_production_april2024,5,,121860,126,html-button-response,"Mozilla/5.0 (Linux; Android 10; K) AppleWebKit/537.36 (KHTML, like Gecko) Chrome/124.0.0.0 Mobile Safari/537.36",,1824,980,100.0,100.0,-25.0,-200.0,124629.80000001192,D,386.0,125015.80000001192,32.0,-250.0,3.0,1700.0,-200.0,
0,1234,-999999,0,0,IowaTask-v2.0,-mobile,jspsych-0.3a-mobile,1,List1,2024-04-29,0,0,projectseed-iowa-production,0.0-0.0-2.0-0.32,eng,6e64b31c6348ac9d094febdaa4fdb26e97e83af1,True,adolescent,374.0,800,360,800,360,e31d4e7d-80c0-4f50-ae05-859061021616,e31d4e7d-80c0-4f50-ae05-859061021616,projectseed_production_april2024,5,,124551,130,html-button-response,"Mozilla/5.0 (Linux; Android 10; K) AppleWebKit/537.36 (KHTML, like Gecko) Chrome/124.0.0.0 Mobile Safari/537.36",,1824,980,100.0,100.0,-25.0,50.0,127332.70000001788,B,374.0,127706.70000001788,33.0,0.0,1.0,1800.0,100.0,
0,1234,-999999,0,0,IowaTask-v2.0,-mobile,jspsych-0.3a-mobile,1,List1,2024-04-29,0,0,projectseed-iowa-production,0.0-0.0-2.0-0.33,eng,6e64b31c6348ac9d094febdaa4fdb26e97e83af1,True,adolescent,613.0,800,360,800,360,e31d4e7d-80c0-4f50-ae05-859061021616,e31d4e7d-80c0-4f50-ae05-859061021616,projectseed_production_april2024,5,,126492,134,html-button-response,"Mozilla/5.0 (Linux; Android 10; K) AppleWebKit/537.36 (KHTML, like Gecko) Chrome/124.0.0.0 Mobile Safari/537.36",,1824,980,100.0,100.0,-25.0,50.0,129034.90000000596,D,613.0,129647.90000000596,34.0,0.0,3.0,1850.0,50.0,
0,1234,-999999,0,0,IowaTask-v2.0,-mobile,jspsych-0.3a-mobile,1,List1,2024-04-29,0,0,projectseed-iowa-production,0.0-0.0-2.0-0.34,eng,6e64b31c6348ac9d094febdaa4fdb26e97e83af1,True,adolescent,413.0,800,360,800,360,e31d4e7d-80c0-4f50-ae05-859061021616,e31d4e7d-80c0-4f50-ae05-859061021616,projectseed_production_april2024,5,,128220,138,html-button-response,"Mozilla/5.0 (Linux; Android 10; K) AppleWebKit/537.36 (KHTML, like Gecko) Chrome/124.0.0.0 Mobile Safari/537.36",,1824,980,100.0,100.0,-25.0,50.0,130963.40000000596,B,413.0,131376.40000000596,35.0,0.0,1.0,1950.0,100.0,
0,1234,-999999,0,0,IowaTask-v2.0,-mobile,jspsych-0.3a-mobile,1,List1,2024-04-29,0,0,projectseed-iowa-production,0.0-0.0-2.0-0.35,eng,6e64b31c6348ac9d094febdaa4fdb26e97e83af1,True,adolescent,410.0,800,360,800,360,e31d4e7d-80c0-4f50-ae05-859061021616,e31d4e7d-80c0-4f50-ae05-859061021616,projectseed_production_april2024,5,,129955,142,html-button-response,"Mozilla/5.0 (Linux; Android 10; K) AppleWebKit/537.36 (KHTML, like Gecko) Chrome/124.0.0.0 Mobile Safari/537.36",,1824,980,100.0,100.0,-25.0,50.0,132701.30000001192,D,410.0,133111.30000001192,36.0,0.0,3.0,2000.0,50.0,
0,1234,-999999,0,0,IowaTask-v2.0,-mobile,jspsych-0.3a-mobile,1,List1,2024-04-29,0,0,projectseed-iowa-production,0.0-0.0-2.0-0.36,eng,6e64b31c6348ac9d094febdaa4fdb26e97e83af1,True,adolescent,375.0,800,360,800,360,e31d4e7d-80c0-4f50-ae05-859061021616,e31d4e7d-80c0-4f50-ae05-859061021616,projectseed_production_april2024,5,,131653,146,html-button-response,"Mozilla/5.0 (Linux; Android 10; K) AppleWebKit/537.36 (KHTML, like Gecko) Chrome/124.0.0.0 Mobile Safari/537.36",,1824,980,100.0,100.0,-25.0,50.0,134433.70000001788,B,375.0,134808.70000001788,37.0,0.0,1.0,2100.0,100.0,
0,1234,-999999,0,0,IowaTask-v2.0,-mobile,jspsych-0.3a-mobile,1,List1,2024-04-29,0,0,projectseed-iowa-production,0.0-0.0-2.0-0.37,eng,6e64b31c6348ac9d094febdaa4fdb26e97e83af1,True,adolescent,412.0,800,360,800,360,e31d4e7d-80c0-4f50-ae05-859061021616,e31d4e7d-80c0-4f50-ae05-859061021616,projectseed_production_april2024,5,,133387,150,html-button-response,"Mozilla/5.0 (Linux; Android 10; K) AppleWebKit/537.36 (KHTML, like Gecko) Chrome/124.0.0.0 Mobile Safari/537.36",,1824,980,100.0,100.0,-25.0,50.0,136131.09999999404,D,412.0,136543.09999999404,38.0,0.0,3.0,2150.0,50.0,
0,1234,-999999,0,0,IowaTask-v2.0,-mobile,jspsych-0.3a-mobile,1,List1,2024-04-29,0,0,projectseed-iowa-production,0.0-0.0-2.0-0.38,eng,6e64b31c6348ac9d094febdaa4fdb26e97e83af1,True,adolescent,424.0,800,360,800,360,e31d4e7d-80c0-4f50-ae05-859061021616,e31d4e7d-80c0-4f50-ae05-859061021616,projectseed_production_april2024,5,,135138,154,html-button-response,"Mozilla/5.0 (Linux; Android 10; K) AppleWebKit/537.36 (KHTML, like Gecko) Chrome/124.0.0.0 Mobile Safari/537.36",,1824,980,100.0,100.0,-25.0,50.0,137870.40000000596,B,424.0,138294.40000000596,39.0,0.0,1.0,2250.0,100.0,
0,1234,-999999,0,0,IowaTask-v2.0,-mobile,jspsych-0.3a-mobile,1,List1,2024-04-29,0,0,projectseed-iowa-production,0.0-0.0-2.0-0.39,eng,6e64b31c6348ac9d094febdaa4fdb26e97e83af1,True,adolescent,454.0,800,360,800,360,e31d4e7d-80c0-4f50-ae05-859061021616,e31d4e7d-80c0-4f50-ae05-859061021616,projectseed_production_april2024,5,,136918,158,html-button-response,"Mozilla/5.0 (Linux; Android 10; K) AppleWebKit/537.36 (KHTML, like Gecko) Chrome/124.0.0.0 Mobile Safari/537.36",,1824,980,100.0,100.0,-25.0,50.0,139619.40000000596,D,454.0,140073.40000000596,40.0,0.0,3.0,2300.0,50.0,
0,1234,-999999,0,0,IowaTask-v2.0,-mobile,jspsych-0.3a-mobile,1,List1,2024-04-29,0,0,projectseed-iowa-production,0.0-0.0-2.0-0.40,eng,6e64b31c6348ac9d094febdaa4fdb26e97e83af1,True,adolescent,417.0,800,360,800,360,e31d4e7d-80c0-4f50-ae05-859061021616,e31d4e7d-80c0-4f50-ae05-859061021616,projectseed_production_april2024,5,,138653,162,html-button-response,"Mozilla/5.0 (Linux; Android 10; K) AppleWebKit/537.36 (KHTML, like Gecko) Chrome/124.0.0.0 Mobile Safari/537.36",,1824,980,100.0,100.0,-25.0,50.0,141392.40000000596,B,417.0,141809.40000000596,41.0,0.0,1.0,2400.0,100.0,
0,1234,-999999,0,0,IowaTask-v2.0,-mobile,jspsych-0.3a-mobile,1,List1,2024-04-29,0,0,projectseed-iowa-production,0.0-0.0-2.0-0.41,eng,6e64b31c6348ac9d094febdaa4fdb26e97e83af1,True,adolescent,434.0,800,360,800,360,e31d4e7d-80c0-4f50-ae05-859061021616,e31d4e7d-80c0-4f50-ae05-859061021616,projectseed_production_april2024,5,,140411,166,html-button-response,"Mozilla/5.0 (Linux; Android 10; K) AppleWebKit/537.36 (KHTML, like Gecko) Chrome/124.0.0.0 Mobile Safari/537.36",,1824,980,100.0,-1150.0,-25.0,50.0,143132.80000001192,D,434.0,143566.80000001192,42.0,0.0,3.0,2450.0,50.0,
0,1234,-999999,0,0,IowaTask-v2.0,-mobile,jspsych-0.3a-mobile,1,List1,2024-04-29,0,0,projectseed-iowa-production,0.0-0.0-2.0-0.42,eng,6e64b31c6348ac9d094febdaa4fdb26e97e83af1,True,adolescent,384.0,800,360,800,360,e31d4e7d-80c0-4f50-ae05-859061021616,e31d4e7d-80c0-4f50-ae05-859061021616,projectseed_production_april2024,5,,142123,170,html-button-response,"Mozilla/5.0 (Linux; Android 10; K) AppleWebKit/537.36 (KHTML, like Gecko) Chrome/124.0.0.0 Mobile Safari/537.36",,1824,980,100.0,-1150.0,-25.0,50.0,144895.30000001192,B,384.0,145279.30000001192,43.0,-1250.0,1.0,1300.0,-1150.0,
0,1234,-999999,0,0,IowaTask-v2.0,-mobile,jspsych-0.3a-mobile,1,List1,2024-04-29,0,0,projectseed-iowa-production,0.0-0.0-2.0-0.43,eng,6e64b31c6348ac9d094febdaa4fdb26e97e83af1,True,adolescent,553.0,800,360,800,360,e31d4e7d-80c0-4f50-ae05-859061021616,e31d4e7d-80c0-4f50-ae05-859061021616,projectseed_production_april2024,5,,145003,174,html-button-response,"Mozilla/5.0 (Linux; Android 10; K) AppleWebKit/537.36 (KHTML, like Gecko) Chrome/124.0.0.0 Mobile Safari/537.36",,1824,980,100.0,100.0,-25.0,50.0,147606.20000001788,A,553.0,148159.20000001788,44.0,0.0,0.0,1400.0,100.0,
0,1234,-999999,0,0,IowaTask-v2.0,-mobile,jspsych-0.3a-mobile,1,List1,2024-04-29,0,0,projectseed-iowa-production,0.0-0.0-2.0-0.44,eng,6e64b31c6348ac9d094febdaa4fdb26e97e83af1,True,adolescent,461.0,800,360,800,360,e31d4e7d-80c0-4f50-ae05-859061021616,e31d4e7d-80c0-4f50-ae05-859061021616,projectseed_production_april2024,5,,146790,178,html-button-response,"Mozilla/5.0 (Linux; Android 10; K) AppleWebKit/537.36 (KHTML, like Gecko) Chrome/124.0.0.0 Mobile Safari/537.36",,1824,980,-150.0,100.0,-25.0,50.0,149484.5,B,461.0,149945.5,45.0,0.0,1.0,1500.0,100.0,
0,1234,-999999,0,0,IowaTask-v2.0,-mobile,jspsych-0.3a-mobile,1,List1,2024-04-29,0,0,projectseed-iowa-production,0.0-0.0-2.0-0.45,eng,6e64b31c6348ac9d094febdaa4fdb26e97e83af1,True,adolescent,558.0,800,360,800,360,e31d4e7d-80c0-4f50-ae05-859061021616,e31d4e7d-80c0-4f50-ae05-859061021616,projectseed_production_april2024,5,,148677,182,html-button-response,"Mozilla/5.0 (Linux; Android 10; K) AppleWebKit/537.36 (KHTML, like Gecko) Chrome/124.0.0.0 Mobile Safari/537.36",,1824,980,-150.0,100.0,-25.0,50.0,151274.30000001192,D,558.0,151832.30000001192,46.0,0.0,3.0,1550.0,50.0,
0,1234,-999999,0,0,IowaTask-v2.0,-mobile,jspsych-0.3a-mobile,1,List1,2024-04-29,0,0,projectseed-iowa-production,0.0-0.0-2.0-0.46,eng,6e64b31c6348ac9d094febdaa4fdb26e97e83af1,True,adolescent,391.0,800,360,800,360,e31d4e7d-80c0-4f50-ae05-859061021616,e31d4e7d-80c0-4f50-ae05-859061021616,projectseed_production_april2024,5,,150396,186,html-button-response,"Mozilla/5.0 (Linux; Android 10; K) AppleWebKit/537.36 (KHTML, like Gecko) Chrome/124.0.0.0 Mobile Safari/537.36",,1824,980,-150.0,100.0,-25.0,50.0,153160.59999999404,B,391.0,153551.59999999404,47.0,0.0,1.0,1650.0,100.0,
0,1234,-999999,0,0,IowaTask-v2.0,-mobile,jspsych-0.3a-mobile,1,List1,2024-04-29,0,0,projectseed-iowa-production,0.0-0.0-2.0-0.47,eng,6e64b31c6348ac9d094febdaa4fdb26e97e83af1,True,adolescent,404.0,800,360,800,360,e31d4e7d-80c0-4f50-ae05-859061021616,e31d4e7d-80c0-4f50-ae05-859061021616,projectseed_production_april2024,5,,152124,190,html-button-response,"Mozilla/5.0 (Linux; Android 10; K) AppleWebKit/537.36 (KHTML, like Gecko) Chrome/124.0.0.0 Mobile Safari/537.36",,1824,980,-150.0,100.0,-25.0,50.0,154875.90000000596,D,404.0,155279.90000000596,48.0,0.0,3.0,1700.0,50.0,
0,1234,-999999,0,0,IowaTask-v2.0,-mobile,jspsych-0.3a-mobile,1,List1,2024-04-29,0,0,projectseed-iowa-production,0.0-0.0-2.0-0.48,eng,6e64b31c6348ac9d094febdaa4fdb26e97e83af1,True,adolescent,448.0,800,360,800,360,e31d4e7d-80c0-4f50-ae05-859061021616,e31d4e7d-80c0-4f50-ae05-859061021616,projectseed_production_april2024,5,,153892,194,html-button-response,"Mozilla/5.0 (Linux; Android 10; K) AppleWebKit/537.36 (KHTML, like Gecko) Chrome/124.0.0.0 Mobile Safari/537.36",,1824,980,-150.0,100.0,-25.0,50.0,156600.30000001192,A,448.0,157048.30000001192,49.0,-250.0,0.0,1550.0,-150.0,
0,1234,-999999,0,0,IowaTask-v2.0,-mobile,jspsych-0.3a-mobile,1,List1,2024-04-29,0,0,projectseed-iowa-production,0.0-0.0-2.0-0.49,eng,6e64b31c6348ac9d094febdaa4fdb26e97e83af1,True,adolescent,335.0,800,360,800,360,e31d4e7d-80c0-4f50-ae05-859061021616,e31d4e7d-80c0-4f50-ae05-859061021616,projectseed_production_april2024,5,,156554,198,html-button-response,"Mozilla/5.0 (Linux; Android 10; K) AppleWebKit/537.36 (KHTML, like Gecko) Chrome/124.0.0.0 Mobile Safari/537.36",,1824,980,100.0,100.0,-25.0,50.0,159375.30000001192,D,335.0,159710.30000001192,50.0,0.0,3.0,1600.0,50.0,
0,1234,-999999,0,0,IowaTask-v2.0,-mobile,jspsych-0.3a-mobile,1,List1,2024-04-29,0,0,projectseed-iowa-production,0.0-0.0-2.0-0.50,eng,6e64b31c6348ac9d094febdaa4fdb26e97e83af1,True,adolescent,977.0,800,360,800,360,e31d4e7d-80c0-4f50-ae05-859061021616,e31d4e7d-80c0-4f50-ae05-859061021616,projectseed_production_april2024,5,,158840,202,html-button-response,"Mozilla/5.0 (Linux; Android 10; K) AppleWebKit/537.36 (KHTML, like Gecko) Chrome/124.0.0.0 Mobile Safari/537.36",,1824,980,100.0,100.0,-25.0,50.0,161019.59999999404,D,977.0,161996.59999999404,51.0,0.0,3.0,1650.0,50.0,
0,1234,-999999,0,0,IowaTask-v2.0,-mobile,jspsych-0.3a-mobile,1,List1,2024-04-29,0,0,projectseed-iowa-production,0.0-0.0-2.0-0.51,eng,6e64b31c6348ac9d094febdaa4fdb26e97e83af1,True,adolescent,432.0,800,360,800,360,e31d4e7d-80c0-4f50-ae05-859061021616,e31d4e7d-80c0-4f50-ae05-859061021616,projectseed_production_april2024,5,,160611,206,html-button-response,"Mozilla/5.0 (Linux; Android 10; K) AppleWebKit/537.36 (KHTML, like Gecko) Chrome/124.0.0.0 Mobile Safari/537.36",,1824,980,100.0,100.0,-25.0,50.0,163335.30000001192,B,432.0,163767.30000001192,52.0,0.0,1.0,1750.0,100.0,
0,1234,-999999,0,0,IowaTask-v2.0,-mobile,jspsych-0.3a-mobile,1,List1,2024-04-29,0,0,projectseed-iowa-production,0.0-0.0-2.0-0.52,eng,6e64b31c6348ac9d094febdaa4fdb26e97e83af1,True,adolescent,419.0,800,360,800,360,e31d4e7d-80c0-4f50-ae05-859061021616,e31d4e7d-80c0-4f50-ae05-859061021616,projectseed_production_april2024,5,,162346,210,html-button-response,"Mozilla/5.0 (Linux; Android 10; K) AppleWebKit/537.36 (KHTML, like Gecko) Chrome/124.0.0.0 Mobile Safari/537.36",,1824,980,100.0,100.0,-25.0,50.0,165082.40000000596,D,419.0,165501.40000000596,53.0,0.0,3.0,1800.0,50.0,
0,1234,-999999,0,0,IowaTask-v2.0,-mobile,jspsych-0.3a-mobile,1,List1,2024-04-29,0,0,projectseed-iowa-production,0.0-0.0-2.0-0.53,eng,6e64b31c6348ac9d094febdaa4fdb26e97e83af1,True,adolescent,362.0,800,360,800,360,e31d4e7d-80c0-4f50-ae05-859061021616,e31d4e7d-80c0-4f50-ae05-859061021616,projectseed_production_april2024,5,,164023,214,html-button-response,"Mozilla/5.0 (Linux; Android 10; K) AppleWebKit/537.36 (KHTML, like Gecko) Chrome/124.0.0.0 Mobile Safari/537.36",,1824,980,100.0,100.0,-25.0,50.0,166816.5,D,362.0,167178.5,54.0,0.0,3.0,1850.0,50.0,
0,1234,-999999,0,0,IowaTask-v2.0,-mobile,jspsych-0.3a-mobile,1,List1,2024-04-29,0,0,projectseed-iowa-production,0.0-0.0-2.0-0.54,eng,6e64b31c6348ac9d094febdaa4fdb26e97e83af1,True,adolescent,465.0,800,360,800,360,e31d4e7d-80c0-4f50-ae05-859061021616,e31d4e7d-80c0-4f50-ae05-859061021616,projectseed_production_april2024,5,,165814,218,html-button-response,"Mozilla/5.0 (Linux; Android 10; K) AppleWebKit/537.36 (KHTML, like Gecko) Chrome/124.0.0.0 Mobile Safari/537.36",,1824,980,100.0,100.0,-25.0,50.0,168505.40000000596,B,465.0,168970.40000000596,55.0,0.0,1.0,1950.0,100.0,
0,1234,-999999,0,0,IowaTask-v2.0,-mobile,jspsych-0.3a-mobile,1,List1,2024-04-29,0,0,projectseed-iowa-production,0.0-0.0-2.0-0.55,eng,6e64b31c6348ac9d094febdaa4fdb26e97e83af1,True,adolescent,438.0,800,360,800,360,e31d4e7d-80c0-4f50-ae05-859061021616,e31d4e7d-80c0-4f50-ae05-859061021616,projectseed_production_april2024,5,,167579,222,html-button-response,"Mozilla/5.0 (Linux; Android 10; K) AppleWebKit/537.36 (KHTML, like Gecko) Chrome/124.0.0.0 Mobile Safari/537.36",,1824,980,100.0,-1150.0,-25.0,50.0,170296.40000000596,D,438.0,170734.40000000596,56.0,0.0,3.0,2000.0,50.0,
0,1234,-999999,0,0,IowaTask-v2.0,-mobile,jspsych-0.3a-mobile,1,List1,2024-04-29,0,0,projectseed-iowa-production,0.0-0.0-2.0-0.56,eng,6e64b31c6348ac9d094febdaa4fdb26e97e83af1,True,adolescent,413.0,800,360,800,360,e31d4e7d-80c0-4f50-ae05-859061021616,e31d4e7d-80c0-4f50-ae05-859061021616,projectseed_production_april2024,5,,169317,226,html-button-response,"Mozilla/5.0 (Linux; Android 10; K) AppleWebKit/537.36 (KHTML, like Gecko) Chrome/124.0.0.0 Mobile Safari/537.36",,1824,980,100.0,-1150.0,-25.0,-200.0,172059.59999999404,D,413.0,172472.59999999404,57.0,-250.0,3.0,1800.0,-200.0,
0,1234,-999999,0,0,IowaTask-v2.0,-mobile,jspsych-0.3a-mobile,1,List1,2024-04-29,0,0,projectseed-iowa-production,0.0-0.0-2.0-0.57,eng,6e64b31c6348ac9d094febdaa4fdb26e97e83af1,True,adolescent,81.0,800,360,800,360,e31d4e7d-80c0-4f50-ae05-859061021616,e31d4e7d-80c0-4f50-ae05-859061021616,projectseed_production_april2024,5,,171727,230,html-button-response,"Mozilla/5.0 (Linux; Android 10; K) AppleWebKit/537.36 (KHTML, like Gecko) Chrome/124.0.0.0 Mobile Safari/537.36",,1824,980,100.0,-1150.0,-25.0,50.0,174803.09999999404,B,81.0,174884.09999999404,58.0,-1250.0,1.0,650.0,-1150.0,
0,1234,-999999,0,0,IowaTask-v2.0,-mobile,jspsych-0.3a-mobile,1,List1,2024-04-29,0,0,projectseed-iowa-production,0.0-0.0-2.0-0.58,eng,6e64b31c6348ac9d094febdaa4fdb26e97e83af1,True,adolescent,609.0,800,360,800,360,e31d4e7d-80c0-4f50-ae05-859061021616,e31d4e7d-80c0-4f50-ae05-859061021616,projectseed_production_april2024,5,,174658,234,html-button-response,"Mozilla/5.0 (Linux; Android 10; K) AppleWebKit/537.36 (KHTML, like Gecko) Chrome/124.0.0.0 Mobile Safari/537.36",,1824,980,100.0,100.0,-25.0,50.0,177205.30000001192,B,609.0,177814.30000001192,59.0,0.0,1.0,750.0,100.0,
0,1234,-999999,0,0,IowaTask-v2.0,-mobile,jspsych-0.3a-mobile,1,List1,2024-04-29,0,0,projectseed-iowa-production,0.0-0.0-2.0-0.59,eng,6e64b31c6348ac9d094febdaa4fdb26e97e83af1,True,adolescent,499.0,800,360,800,360,e31d4e7d-80c0-4f50-ae05-859061021616,e31d4e7d-80c0-4f50-ae05-859061021616,projectseed_production_april2024,5,,176481,238,html-button-response,"Mozilla/5.0 (Linux; Android 10; K) AppleWebKit/537.36 (KHTML, like Gecko) Chrome/124.0.0.0 Mobile Safari/537.36",,1824,980,100.0,100.0,-25.0,50.0,179137.70000001788,C,499.0,179636.70000001788,60.0,-75.0,2.0,725.0,-25.0,
0,1234,-999999,0,0,IowaTask-v2.0,-mobile,jspsych-0.3a-mobile,1,List1,2024-04-29,0,0,projectseed-iowa-production,0.0-0.0-2.0-0.60,eng,6e64b31c6348ac9d094febdaa4fdb26e97e83af1,True,adolescent,495.0,800,360,800,360,e31d4e7d-80c0-4f50-ae05-859061021616,e31d4e7d-80c0-4f50-ae05-859061021616,projectseed_production_april2024,5,,179302,242,html-button-response,"Mozilla/5.0 (Linux; Android 10; K) AppleWebKit/537.36 (KHTML, like Gecko) Chrome/124.0.0.0 Mobile Safari/537.36",,1824,980,100.0,100.0,-25.0,50.0,181963.0,A,495.0,182458.0,61.0,0.0,0.0,825.0,100.0,
0,1234,-999999,0,0,IowaTask-v2.0,-mobile,jspsych-0.3a-mobile,1,List1,2024-04-29,0,0,projectseed-iowa-production,0.0-0.0-2.0-0.61,eng,6e64b31c6348ac9d094febdaa4fdb26e97e83af1,True,adolescent,475.0,800,360,800,360,e31d4e7d-80c0-4f50-ae05-859061021616,e31d4e7d-80c0-4f50-ae05-859061021616,projectseed_production_april2024,5,,181102,246,html-button-response,"Mozilla/5.0 (Linux; Android 10; K) AppleWebKit/537.36 (KHTML, like Gecko) Chrome/124.0.0.0 Mobile Safari/537.36",,1824,980,100.0,100.0,-25.0,50.0,183783.30000001192,D,475.0,184258.30000001192,62.0,0.0,3.0,875.0,50.0,
0,1234,-999999,0,0,IowaTask-v2.0,-mobile,jspsych-0.3a-mobile,1,List1,2024-04-29,0,0,projectseed-iowa-production,0.0-0.0-2.0-0.62,eng,6e64b31c6348ac9d094febdaa4fdb26e97e83af1,True,adolescent,447.0,800,360,800,360,e31d4e7d-80c0-4f50-ae05-859061021616,e31d4e7d-80c0-4f50-ae05-859061021616,projectseed_production_april2024,5,,182870,250,html-button-response,"Mozilla/5.0 (Linux; Android 10; K) AppleWebKit/537.36 (KHTML, like Gecko) Chrome/124.0.0.0 Mobile Safari/537.36",,1824,980,100.0,100.0,-25.0,50.0,185579.20000001788,B,447.0,186026.20000001788,63.0,0.0,1.0,975.0,100.0,
0,1234,-999999,0,0,IowaTask-v2.0,-mobile,jspsych-0.3a-mobile,1,List1,2024-04-29,0,0,projectseed-iowa-production,0.0-0.0-2.0-0.63,eng,6e64b31c6348ac9d094febdaa4fdb26e97e83af1,True,adolescent,454.0,800,360,800,360,e31d4e7d-80c0-4f50-ae05-859061021616,e31d4e7d-80c0-4f50-ae05-859061021616,projectseed_production_april2024,5,,184656,254,html-button-response,"Mozilla/5.0 (Linux; Android 10; K) AppleWebKit/537.36 (KHTML, like Gecko) Chrome/124.0.0.0 Mobile Safari/537.36",,1824,980,100.0,100.0,-25.0,50.0,187357.70000001788,A,454.0,187811.70000001788,64.0,0.0,0.0,1075.0,100.0,
0,1234,-999999,0,0,IowaTask-v2.0,-mobile,jspsych-0.3a-mobile,1,List1,2024-04-29,0,0,projectseed-iowa-production,0.0-0.0-2.0-0.64,eng,6e64b31c6348ac9d094febdaa4fdb26e97e83af1,True,adolescent,431.0,800,360,800,360,e31d4e7d-80c0-4f50-ae05-859061021616,e31d4e7d-80c0-4f50-ae05-859061021616,projectseed_production_april2024,5,,186410,258,html-button-response,"Mozilla/5.0 (Linux; Android 10; K) AppleWebKit/537.36 (KHTML, like Gecko) Chrome/124.0.0.0 Mobile Safari/537.36",,1824,980,-50.0,100.0,-25.0,50.0,189134.90000000596,D,431.0,189565.90000000596,65.0,0.0,3.0,1125.0,50.0,
0,1234,-999999,0,0,IowaTask-v2.0,-mobile,jspsych-0.3a-mobile,1,List1,2024-04-29,0,0,projectseed-iowa-production,0.0-0.0-2.0-0.65,eng,6e64b31c6348ac9d094febdaa4fdb26e97e83af1,True,adolescent,471.0,800,360,800,360,e31d4e7d-80c0-4f50-ae05-859061021616,e31d4e7d-80c0-4f50-ae05-859061021616,projectseed_production_april2024,5,,188212,262,html-button-response,"Mozilla/5.0 (Linux; Android 10; K) AppleWebKit/537.36 (KHTML, like Gecko) Chrome/124.0.0.0 Mobile Safari/537.36",,1824,980,-50.0,100.0,-25.0,50.0,190896.90000000596,A,471.0,191367.90000000596,66.0,-150.0,0.0,1075.0,-50.0,
0,1234,-999999,0,0,IowaTask-v2.0,-mobile,jspsych-0.3a-mobile,1,List1,2024-04-29,0,0,projectseed-iowa-production,0.0-0.0-2.0-0.66,eng,6e64b31c6348ac9d094febdaa4fdb26e97e83af1,True,adolescent,220.0,800,360,800,360,e31d4e7d-80c0-4f50-ae05-859061021616,e31d4e7d-80c0-4f50-ae05-859061021616,projectseed_production_april2024,5,,190757,266,html-button-response,"Mozilla/5.0 (Linux; Android 10; K) AppleWebKit/537.36 (KHTML, like Gecko) Chrome/124.0.0.0 Mobile Safari/537.36",,1824,980,-200.0,100.0,-25.0,50.0,193693.20000001788,B,220.0,193913.20000001788,67.0,0.0,1.0,1175.0,100.0,
0,1234,-999999,0,0,IowaTask-v2.0,-mobile,jspsych-0.3a-mobile,1,List1,2024-04-29,0,0,projectseed-iowa-production,0.0-0.0-2.0-0.67,eng,6e64b31c6348ac9d094febdaa4fdb26e97e83af1,True,adolescent,1282.0,800,360,800,360,e31d4e7d-80c0-4f50-ae05-859061021616,e31d4e7d-80c0-4f50-ae05-859061021616,projectseed_production_april2024,5,,193361,270,html-button-response,"Mozilla/5.0 (Linux; Android 10; K) AppleWebKit/537.36 (KHTML, like Gecko) Chrome/124.0.0.0 Mobile Safari/537.36",,1824,980,-200.0,100.0,-25.0,50.0,195235.40000000596,D,1282.0,196517.40000000596,68.0,0.0,3.0,1225.0,50.0,
0,1234,-999999,0,0,IowaTask-v2.0,-mobile,jspsych-0.3a-mobile,1,List1,2024-04-29,0,0,projectseed-iowa-production,0.0-0.0-2.0-0.68,eng,6e64b31c6348ac9d094febdaa4fdb26e97e83af1,True,adolescent,480.0,800,360,800,360,e31d4e7d-80c0-4f50-ae05-859061021616,e31d4e7d-80c0-4f50-ae05-859061021616,projectseed_production_april2024,5,,195172,274,html-button-response,"Mozilla/5.0 (Linux; Android 10; K) AppleWebKit/537.36 (KHTML, like Gecko) Chrome/124.0.0.0 Mobile Safari/537.36",,1824,980,-200.0,100.0,-25.0,50.0,197848.0,B,480.0,198328.0,69.0,0.0,1.0,1325.0,100.0,
0,1234,-999999,0,0,IowaTask-v2.0,-mobile,jspsych-0.3a-mobile,1,List1,2024-04-29,0,0,projectseed-iowa-production,0.0-0.0-2.0-0.69,eng,6e64b31c6348ac9d094febdaa4fdb26e97e83af1,True,adolescent,289.0,800,360,800,360,e31d4e7d-80c0-4f50-ae05-859061021616,e31d4e7d-80c0-4f50-ae05-859061021616,projectseed_production_april2024,5,,196784,278,html-button-response,"Mozilla/5.0 (Linux; Android 10; K) AppleWebKit/537.36 (KHTML, like Gecko) Chrome/124.0.0.0 Mobile Safari/537.36",,1824,980,-200.0,100.0,-25.0,50.0,199651.0,D,289.0,199940.0,70.0,0.0,3.0,1375.0,50.0,
0,1234,-999999,0,0,IowaTask-v2.0,-mobile,jspsych-0.3a-mobile,1,List1,2024-04-29,0,0,projectseed-iowa-production,0.0-0.0-2.0-0.70,eng,6e64b31c6348ac9d094febdaa4fdb26e97e83af1,True,adolescent,551.0,800,360,800,360,e31d4e7d-80c0-4f50-ae05-859061021616,e31d4e7d-80c0-4f50-ae05-859061021616,projectseed_production_april2024,5,,198661,282,html-button-response,"Mozilla/5.0 (Linux; Android 10; K) AppleWebKit/537.36 (KHTML, like Gecko) Chrome/124.0.0.0 Mobile Safari/537.36",,1824,980,-200.0,100.0,-25.0,50.0,201266.20000001788,A,551.0,201817.20000001788,71.0,-300.0,0.0,1175.0,-200.0,
0,1234,-999999,0,0,IowaTask-v2.0,-mobile,jspsych-0.3a-mobile,1,List1,2024-04-29,0,0,projectseed-iowa-production,0.0-0.0-2.0-0.71,eng,6e64b31c6348ac9d094febdaa4fdb26e97e83af1,True,adolescent,507.0,800,360,800,360,e31d4e7d-80c0-4f50-ae05-859061021616,e31d4e7d-80c0-4f50-ae05-859061021616,projectseed_production_april2024,5,,201490,286,html-button-response,"Mozilla/5.0 (Linux; Android 10; K) AppleWebKit/537.36 (KHTML, like Gecko) Chrome/124.0.0.0 Mobile Safari/537.36",,1824,980,100.0,100.0,-25.0,50.0,204139.09999999404,A,507.0,204646.09999999404,72.0,0.0,0.0,1275.0,100.0,
0,1234,-999999,0,0,IowaTask-v2.0,-mobile,jspsych-0.3a-mobile,1,List1,2024-04-29,0,0,projectseed-iowa-production,0.0-0.0-2.0-0.72,eng,6e64b31c6348ac9d094febdaa4fdb26e97e83af1,True,adolescent,587.0,800,360,800,360,e31d4e7d-80c0-4f50-ae05-859061021616,e31d4e7d-80c0-4f50-ae05-859061021616,projectseed_production_april2024,5,,203412,290,html-button-response,"Mozilla/5.0 (Linux; Android 10; K) AppleWebKit/537.36 (KHTML, like Gecko) Chrome/124.0.0.0 Mobile Safari/537.36",,1824,980,100.0,100.0,-25.0,50.0,205981.09999999404,D,587.0,206568.09999999404,73.0,0.0,3.0,1325.0,50.0,
0,1234,-999999,0,0,IowaTask-v2.0,-mobile,jspsych-0.3a-mobile,1,List1,2024-04-29,0,0,projectseed-iowa-production,0.0-0.0-2.0-0.73,eng,6e64b31c6348ac9d094febdaa4fdb26e97e83af1,True,adolescent,562.0,800,360,800,360,e31d4e7d-80c0-4f50-ae05-859061021616,e31d4e7d-80c0-4f50-ae05-859061021616,projectseed_production_april2024,5,,205297,294,html-button-response,"Mozilla/5.0 (Linux; Android 10; K) AppleWebKit/537.36 (KHTML, like Gecko) Chrome/124.0.0.0 Mobile Safari/537.36",,1824,980,100.0,100.0,-25.0,50.0,207890.80000001192,D,562.0,208452.80000001192,74.0,0.0,3.0,1375.0,50.0,
0,1234,-999999,0,0,IowaTask-v2.0,-mobile,jspsych-0.3a-mobile,1,List1,2024-04-29,0,0,projectseed-iowa-production,0.0-0.0-2.0-0.74,eng,6e64b31c6348ac9d094febdaa4fdb26e97e83af1,True,adolescent,309.0,800,360,800,360,e31d4e7d-80c0-4f50-ae05-859061021616,e31d4e7d-80c0-4f50-ae05-859061021616,projectseed_production_april2024,5,,206925,298,html-button-response,"Mozilla/5.0 (Linux; Android 10; K) AppleWebKit/537.36 (KHTML, like Gecko) Chrome/124.0.0.0 Mobile Safari/537.36",,1824,980,100.0,100.0,-25.0,50.0,209772.0,D,309.0,210081.0,75.0,0.0,3.0,1425.0,50.0,
0,1234,-999999,0,0,IowaTask-v2.0,-mobile,jspsych-0.3a-mobile,1,List1,2024-04-29,0,0,projectseed-iowa-production,0.0-0.0-2.0-0.75,eng,6e64b31c6348ac9d094febdaa4fdb26e97e83af1,True,adolescent,394.0,800,360,800,360,e31d4e7d-80c0-4f50-ae05-859061021616,e31d4e7d-80c0-4f50-ae05-859061021616,projectseed_production_april2024,5,,208645,302,html-button-response,"Mozilla/5.0 (Linux; Android 10; K) AppleWebKit/537.36 (KHTML, like Gecko) Chrome/124.0.0.0 Mobile Safari/537.36",,1824,980,100.0,100.0,-25.0,50.0,211407.30000001192,D,394.0,211801.30000001192,76.0,0.0,3.0,1475.0,50.0,
0,1234,-999999,0,0,IowaTask-v2.0,-mobile,jspsych-0.3a-mobile,1,List1,2024-04-29,0,0,projectseed-iowa-production,0.0-0.0-2.0-0.76,eng,6e64b31c6348ac9d094febdaa4fdb26e97e83af1,True,adolescent,302.0,800,360,800,360,e31d4e7d-80c0-4f50-ae05-859061021616,e31d4e7d-80c0-4f50-ae05-859061021616,projectseed_production_april2024,5,,210273,306,html-button-response,"Mozilla/5.0 (Linux; Android 10; K) AppleWebKit/537.36 (KHTML, like Gecko) Chrome/124.0.0.0 Mobile Safari/537.36",,1824,980,100.0,100.0,-25.0,-200.0,213126.90000000596,D,302.0,213428.90000000596,77.0,-250.0,3.0,1275.0,-200.0,
0,1234,-999999,0,0,IowaTask-v2.0,-mobile,jspsych-0.3a-mobile,1,List1,2024-04-29,0,0,projectseed-iowa-production,0.0-0.0-2.0-0.77,eng,6e64b31c6348ac9d094febdaa4fdb26e97e83af1,True,adolescent,96.0,800,360,800,360,e31d4e7d-80c0-4f50-ae05-859061021616,e31d4e7d-80c0-4f50-ae05-859061021616,projectseed_production_april2024,5,,212691,310,html-button-response,"Mozilla/5.0 (Linux; Android 10; K) AppleWebKit/537.36 (KHTML, like Gecko) Chrome/124.0.0.0 Mobile Safari/537.36",,1824,980,100.0,100.0,-25.0,50.0,215750.59999999404,D,96.0,215846.59999999404,78.0,0.0,3.0,1325.0,50.0,
0,1234,-999999,0,0,IowaTask-v2.0,-mobile,jspsych-0.3a-mobile,1,List1,2024-04-29,0,0,projectseed-iowa-production,0.0-0.0-2.0-0.78,eng,6e64b31c6348ac9d094febdaa4fdb26e97e83af1,True,adolescent,223.0,800,360,800,360,e31d4e7d-80c0-4f50-ae05-859061021616,e31d4e7d-80c0-4f50-ae05-859061021616,projectseed_production_april2024,5,,214244,314,html-button-response,"Mozilla/5.0 (Linux; Android 10; K) AppleWebKit/537.36 (KHTML, like Gecko) Chrome/124.0.0.0 Mobile Safari/537.36",,1824,980,100.0,100.0,-25.0,50.0,217176.90000000596,D,223.0,217399.90000000596,79.0,0.0,3.0,1375.0,50.0,
0,1234,-999999,0,0,IowaTask-v2.0,-mobile,jspsych-0.3a-mobile,1,List1,2024-04-29,0,0,projectseed-iowa-production,0.0-0.0-2.0-0.79,eng,6e64b31c6348ac9d094febdaa4fdb26e97e83af1,True,adolescent,266.0,800,360,800,360,e31d4e7d-80c0-4f50-ae05-859061021616,e31d4e7d-80c0-4f50-ae05-859061021616,projectseed_production_april2024,5,,215838,318,html-button-response,"Mozilla/5.0 (Linux; Android 10; K) AppleWebKit/537.36 (KHTML, like Gecko) Chrome/124.0.0.0 Mobile Safari/537.36",,1824,980,100.0,100.0,-25.0,50.0,218728.40000000596,D,266.0,218994.40000000596,80.0,0.0,3.0,1425.0,50.0,
0,1234,-999999,0,0,IowaTask-v2.0,-mobile,jspsych-0.3a-mobile,1,List1,2024-04-29,0,0,projectseed-iowa-production,0.0-0.0-2.0-0.80,eng,6e64b31c6348ac9d094febdaa4fdb26e97e83af1,True,adolescent,268.0,800,360,800,360,e31d4e7d-80c0-4f50-ae05-859061021616,e31d4e7d-80c0-4f50-ae05-859061021616,projectseed_production_april2024,5,,217434,322,html-button-response,"Mozilla/5.0 (Linux; Android 10; K) AppleWebKit/537.36 (KHTML, like Gecko) Chrome/124.0.0.0 Mobile Safari/537.36",,1824,980,100.0,100.0,-25.0,50.0,220322.20000001788,D,268.0,220590.20000001788,81.0,0.0,3.0,1475.0,50.0,
0,1234,-999999,0,0,IowaTask-v2.0,-mobile,jspsych-0.3a-mobile,1,List1,2024-04-29,0,0,projectseed-iowa-production,0.0-0.0-2.0-0.81,eng,6e64b31c6348ac9d094febdaa4fdb26e97e83af1,True,adolescent,516.0,800,360,800,360,e31d4e7d-80c0-4f50-ae05-859061021616,e31d4e7d-80c0-4f50-ae05-859061021616,projectseed_production_april2024,5,,219278,326,html-button-response,"Mozilla/5.0 (Linux; Android 10; K) AppleWebKit/537.36 (KHTML, like Gecko) Chrome/124.0.0.0 Mobile Safari/537.36",,1824,980,100.0,100.0,-25.0,50.0,221917.80000001192,B,516.0,222433.80000001192,82.0,0.0,1.0,1575.0,100.0,
0,1234,-999999,0,0,IowaTask-v2.0,-mobile,jspsych-0.3a-mobile,1,List1,2024-04-29,0,0,projectseed-iowa-production,0.0-0.0-2.0-0.82,eng,6e64b31c6348ac9d094febdaa4fdb26e97e83af1,True,adolescent,418.0,800,360,800,360,e31d4e7d-80c0-4f50-ae05-859061021616,e31d4e7d-80c0-4f50-ae05-859061021616,projectseed_production_april2024,5,,221022,330,html-button-response,"Mozilla/5.0 (Linux; Android 10; K) AppleWebKit/537.36 (KHTML, like Gecko) Chrome/124.0.0.0 Mobile Safari/537.36",,1824,980,100.0,100.0,-25.0,50.0,223760.0,D,418.0,224178.0,83.0,0.0,3.0,1625.0,50.0,
0,1234,-999999,0,0,IowaTask-v2.0,-mobile,jspsych-0.3a-mobile,1,List1,2024-04-29,0,0,projectseed-iowa-production,0.0-0.0-2.0-0.83,eng,6e64b31c6348ac9d094febdaa4fdb26e97e83af1,True,adolescent,197.0,800,360,800,360,e31d4e7d-80c0-4f50-ae05-859061021616,e31d4e7d-80c0-4f50-ae05-859061021616,projectseed_production_april2024,5,,222541,334,html-button-response,"Mozilla/5.0 (Linux; Android 10; K) AppleWebKit/537.36 (KHTML, like Gecko) Chrome/124.0.0.0 Mobile Safari/537.36",,1824,980,100.0,100.0,-25.0,50.0,225500.0,D,197.0,225697.0,84.0,0.0,3.0,1675.0,50.0,
0,1234,-999999,0,0,IowaTask-v2.0,-mobile,jspsych-0.3a-mobile,1,List1,2024-04-29,0,0,projectseed-iowa-production,0.0-0.0-2.0-0.84,eng,6e64b31c6348ac9d094febdaa4fdb26e97e83af1,True,adolescent,286.0,800,360,800,360,e31d4e7d-80c0-4f50-ae05-859061021616,e31d4e7d-80c0-4f50-ae05-859061021616,projectseed_production_april2024,5,,224151,338,html-button-response,"Mozilla/5.0 (Linux; Android 10; K) AppleWebKit/537.36 (KHTML, like Gecko) Chrome/124.0.0.0 Mobile Safari/537.36",,1824,980,100.0,100.0,-25.0,50.0,227021.40000000596,D,286.0,227307.40000000596,85.0,0.0,3.0,1725.0,50.0,
0,1234,-999999,0,0,IowaTask-v2.0,-mobile,jspsych-0.3a-mobile,1,List1,2024-04-29,0,0,projectseed-iowa-production,0.0-0.0-2.0-0.85,eng,6e64b31c6348ac9d094febdaa4fdb26e97e83af1,True,adolescent,276.0,800,360,800,360,e31d4e7d-80c0-4f50-ae05-859061021616,e31d4e7d-80c0-4f50-ae05-859061021616,projectseed_production_april2024,5,,225759,342,html-button-response,"Mozilla/5.0 (Linux; Android 10; K) AppleWebKit/537.36 (KHTML, like Gecko) Chrome/124.0.0.0 Mobile Safari/537.36",,1824,980,100.0,100.0,-25.0,-200.0,228638.90000000596,D,276.0,228914.90000000596,86.0,-250.0,3.0,1525.0,-200.0,
0,1234,-999999,0,0,IowaTask-v2.0,-mobile,jspsych-0.3a-mobile,1,List1,2024-04-29,0,0,projectseed-iowa-production,0.0-0.0-2.0-0.86,eng,6e64b31c6348ac9d094febdaa4fdb26e97e83af1,True,adolescent,121.0,800,360,800,360,e31d4e7d-80c0-4f50-ae05-859061021616,e31d4e7d-80c0-4f50-ae05-859061021616,projectseed_production_april2024,5,,228226,346,html-button-response,"Mozilla/5.0 (Linux; Android 10; K) AppleWebKit/537.36 (KHTML, like Gecko) Chrome/124.0.0.0 Mobile Safari/537.36",,1824,980,100.0,100.0,-25.0,50.0,231260.90000000596,D,121.0,231381.90000000596,87.0,0.0,3.0,1575.0,50.0,
0,1234,-999999,0,0,IowaTask-v2.0,-mobile,jspsych-0.3a-mobile,1,List1,2024-04-29,0,0,projectseed-iowa-production,0.0-0.0-2.0-0.87,eng,6e64b31c6348ac9d094febdaa4fdb26e97e83af1,True,adolescent,57.0,800,360,800,360,e31d4e7d-80c0-4f50-ae05-859061021616,e31d4e7d-80c0-4f50-ae05-859061021616,projectseed_production_april2024,5,,229603,350,html-button-response,"Mozilla/5.0 (Linux; Android 10; K) AppleWebKit/537.36 (KHTML, like Gecko) Chrome/124.0.0.0 Mobile Safari/537.36",,1824,980,100.0,100.0,-25.0,50.0,232701.90000000596,D,57.0,232758.90000000596,88.0,0.0,3.0,1625.0,50.0,
0,1234,-999999,0,0,IowaTask-v2.0,-mobile,jspsych-0.3a-mobile,1,List1,2024-04-29,0,0,projectseed-iowa-production,0.0-0.0-2.0-0.88,eng,6e64b31c6348ac9d094febdaa4fdb26e97e83af1,True,adolescent,92.0,800,360,800,360,e31d4e7d-80c0-4f50-ae05-859061021616,e31d4e7d-80c0-4f50-ae05-859061021616,projectseed_production_april2024,5,,231021,354,html-button-response,"Mozilla/5.0 (Linux; Android 10; K) AppleWebKit/537.36 (KHTML, like Gecko) Chrome/124.0.0.0 Mobile Safari/537.36",,1824,980,100.0,100.0,-25.0,50.0,234085.30000001192,D,92.0,234177.30000001192,89.0,0.0,3.0,1675.0,50.0,
0,1234,-999999,0,0,IowaTask-v2.0,-mobile,jspsych-0.3a-mobile,1,List1,2024-04-29,0,0,projectseed-iowa-production,0.0-0.0-2.0-0.89,eng,6e64b31c6348ac9d094febdaa4fdb26e97e83af1,True,adolescent,167.0,800,360,800,360,e31d4e7d-80c0-4f50-ae05-859061021616,e31d4e7d-80c0-4f50-ae05-859061021616,projectseed_production_april2024,5,,232517,358,html-button-response,"Mozilla/5.0 (Linux; Android 10; K) AppleWebKit/537.36 (KHTML, like Gecko) Chrome/124.0.0.0 Mobile Safari/537.36",,1824,980,100.0,100.0,-25.0,50.0,235506.30000001192,D,167.0,235673.30000001192,90.0,0.0,3.0,1725.0,50.0,
0,1234,-999999,0,0,IowaTask-v2.0,-mobile,jspsych-0.3a-mobile,1,List1,2024-04-29,0,0,projectseed-iowa-production,0.0-0.0-2.0-0.90,eng,6e64b31c6348ac9d094febdaa4fdb26e97e83af1,True,adolescent,505.0,800,360,800,360,e31d4e7d-80c0-4f50-ae05-859061021616,e31d4e7d-80c0-4f50-ae05-859061021616,projectseed_production_april2024,5,,234343,362,html-button-response,"Mozilla/5.0 (Linux; Android 10; K) AppleWebKit/537.36 (KHTML, like Gecko) Chrome/124.0.0.0 Mobile Safari/537.36",,1824,980,100.0,100.0,-25.0,50.0,236993.90000000596,B,505.0,237498.90000000596,91.0,0.0,1.0,1825.0,100.0,
0,1234,-999999,0,0,IowaTask-v2.0,-mobile,jspsych-0.3a-mobile,1,List1,2024-04-29,0,0,projectseed-iowa-production,0.0-0.0-2.0-0.91,eng,6e64b31c6348ac9d094febdaa4fdb26e97e83af1,True,adolescent,797.0,800,360,800,360,e31d4e7d-80c0-4f50-ae05-859061021616,e31d4e7d-80c0-4f50-ae05-859061021616,projectseed_production_april2024,5,,236463,366,html-button-response,"Mozilla/5.0 (Linux; Android 10; K) AppleWebKit/537.36 (KHTML, like Gecko) Chrome/124.0.0.0 Mobile Safari/537.36",,1824,980,100.0,100.0,-25.0,50.0,238823.09999999404,D,797.0,239620.09999999404,92.0,0.0,3.0,1875.0,50.0,
0,1234,-999999,0,0,IowaTask-v2.0,-mobile,jspsych-0.3a-mobile,1,List1,2024-04-29,0,0,projectseed-iowa-production,0.0-0.0-2.0-0.92,eng,6e64b31c6348ac9d094febdaa4fdb26e97e83af1,True,adolescent,369.0,800,360,800,360,e31d4e7d-80c0-4f50-ae05-859061021616,e31d4e7d-80c0-4f50-ae05-859061021616,projectseed_production_april2024,5,,238158,370,html-button-response,"Mozilla/5.0 (Linux; Android 10; K) AppleWebKit/537.36 (KHTML, like Gecko) Chrome/124.0.0.0 Mobile Safari/537.36",,1824,980,100.0,100.0,-25.0,50.0,240945.20000001788,D,369.0,241314.20000001788,93.0,0.0,3.0,1925.0,50.0,
0,1234,-999999,0,0,IowaTask-v2.0,-mobile,jspsych-0.3a-mobile,1,List1,2024-04-29,0,0,projectseed-iowa-production,0.0-0.0-2.0-0.93,eng,6e64b31c6348ac9d094febdaa4fdb26e97e83af1,True,adolescent,1339.0,800,360,800,360,e31d4e7d-80c0-4f50-ae05-859061021616,e31d4e7d-80c0-4f50-ae05-859061021616,projectseed_production_april2024,5,,240820,374,html-button-response,"Mozilla/5.0 (Linux; Android 10; K) AppleWebKit/537.36 (KHTML, like Gecko) Chrome/124.0.0.0 Mobile Safari/537.36",,1824,980,100.0,100.0,-25.0,50.0,242637.59999999404,D,1339.0,243976.59999999404,94.0,0.0,3.0,1975.0,50.0,
0,1234,-999999,0,0,IowaTask-v2.0,-mobile,jspsych-0.3a-mobile,1,List1,2024-04-29,0,0,projectseed-iowa-production,0.0-0.0-2.0-0.94,eng,6e64b31c6348ac9d094febdaa4fdb26e97e83af1,True,adolescent,461.0,800,360,800,360,e31d4e7d-80c0-4f50-ae05-859061021616,e31d4e7d-80c0-4f50-ae05-859061021616,projectseed_production_april2024,5,,242605,378,html-button-response,"Mozilla/5.0 (Linux; Android 10; K) AppleWebKit/537.36 (KHTML, like Gecko) Chrome/124.0.0.0 Mobile Safari/537.36",,1824,980,100.0,100.0,-25.0,50.0,245299.70000001788,D,461.0,245760.70000001788,95.0,0.0,3.0,2025.0,50.0,
0,1234,-999999,0,0,IowaTask-v2.0,-mobile,jspsych-0.3a-mobile,1,List1,2024-04-29,0,0,projectseed-iowa-production,0.0-0.0-2.0-0.95,eng,6e64b31c6348ac9d094febdaa4fdb26e97e83af1,True,adolescent,769.0,800,360,800,360,e31d4e7d-80c0-4f50-ae05-859061021616,e31d4e7d-80c0-4f50-ae05-859061021616,projectseed_production_april2024,5,,244702,382,html-button-response,"Mozilla/5.0 (Linux; Android 10; K) AppleWebKit/537.36 (KHTML, like Gecko) Chrome/124.0.0.0 Mobile Safari/537.36",,1824,980,100.0,100.0,-25.0,50.0,247089.20000001788,D,769.0,247858.20000001788,96.0,0.0,3.0,2075.0,50.0,
0,1234,-999999,0,0,IowaTask-v2.0,-mobile,jspsych-0.3a-mobile,1,List1,2024-04-29,0,0,projectseed-iowa-production,0.0-0.0-2.0-0.96,eng,6e64b31c6348ac9d094febdaa4fdb26e97e83af1,True,adolescent,533.0,800,360,800,360,e31d4e7d-80c0-4f50-ae05-859061021616,e31d4e7d-80c0-4f50-ae05-859061021616,projectseed_production_april2024,5,,246572,386,html-button-response,"Mozilla/5.0 (Linux; Android 10; K) AppleWebKit/537.36 (KHTML, like Gecko) Chrome/124.0.0.0 Mobile Safari/537.36",,1824,980,100.0,100.0,-25.0,-200.0,249194.80000001192,D,533.0,249727.80000001192,97.0,-250.0,3.0,1875.0,-200.0,
0,1234,-999999,0,0,IowaTask-v2.0,-mobile,jspsych-0.3a-mobile,1,List1,2024-04-29,0,0,projectseed-iowa-production,0.0-0.0-2.0-0.97,eng,6e64b31c6348ac9d094febdaa4fdb26e97e83af1,True,adolescent,1442.0,800,360,800,360,e31d4e7d-80c0-4f50-ae05-859061021616,e31d4e7d-80c0-4f50-ae05-859061021616,projectseed_production_april2024,5,,250346,390,html-button-response,"Mozilla/5.0 (Linux; Android 10; K) AppleWebKit/537.36 (KHTML, like Gecko) Chrome/124.0.0.0 Mobile Safari/537.36",,1824,980,100.0,100.0,-25.0,50.0,252060.09999999404,D,1442.0,253502.09999999404,98.0,0.0,3.0,1925.0,50.0,
0,1234,-999999,0,0,IowaTask-v2.0,-mobile,jspsych-0.3a-mobile,1,List1,2024-04-29,0,0,projectseed-iowa-production,0.0-0.0-2.0-0.98,eng,6e64b31c6348ac9d094febdaa4fdb26e97e83af1,True,adolescent,613.0,800,360,800,360,e31d4e7d-80c0-4f50-ae05-859061021616,e31d4e7d-80c0-4f50-ae05-859061021616,projectseed_production_april2024,5,,252265,394,html-button-response,"Mozilla/5.0 (Linux; Android 10; K) AppleWebKit/537.36 (KHTML, like Gecko) Chrome/124.0.0.0 Mobile Safari/537.36",,1824,980,100.0,100.0,-25.0,50.0,254808.40000000596,D,613.0,255421.40000000596,99.0,0.0,3.0,1975.0,50.0,
0,1234,-999999,0,0,IowaTask-v2.0,-mobile,jspsych-0.3a-mobile,1,List1,2024-04-29,0,0,projectseed-iowa-production,0.0-0.0-2.0-0.99,eng,6e64b31c6348ac9d094febdaa4fdb26e97e83af1,True,adolescent,242.0,800,360,800,360,e31d4e7d-80c0-4f50-ae05-859061021616,e31d4e7d-80c0-4f50-ae05-859061021616,projectseed_production_april2024,5,,253832,398,html-button-response,"Mozilla/5.0 (Linux; Android 10; K) AppleWebKit/537.36 (KHTML, like Gecko) Chrome/124.0.0.0 Mobile Safari/537.36",,1824,980,100.0,100.0,-25.0,50.0,256745.70000001788,D,242.0,256987.70000001788,100.0,0.0,3.0,2025.0,50.0,
0,1234,-999999,0,0,IowaTask-v2.0,-mobile,jspsych-0.3a-mobile,1,List1,2024-04-29,0,0,projectseed-iowa-production,0.0-0.0-2.0-0.100,eng,6e64b31c6348ac9d094febdaa4fdb26e97e83af1,True,adolescent,216.0,800,360,800,360,e31d4e7d-80c0-4f50-ae05-859061021616,e31d4e7d-80c0-4f50-ae05-859061021616,projectseed_production_april2024,5,,255362,402,html-button-response,"Mozilla/5.0 (Linux; Android 10; K) AppleWebKit/537.36 (KHTML, like Gecko) Chrome/124.0.0.0 Mobile Safari/537.36",,1824,980,100.0,100.0,-25.0,50.0,258301.70000001788,D,216.0,258517.70000001788,101.0,0.0,3.0,2075.0,50.0,
0,1234,-999999,0,0,IowaTask-v2.0,-mobile,jspsych-0.3a-mobile,1,List1,2024-04-29,0,0,projectseed-iowa-production,0.0-0.0-2.0-0.101,eng,6e64b31c6348ac9d094febdaa4fdb26e97e83af1,True,adolescent,8125.0,800,360,800,360,e31d4e7d-80c0-4f50-ae05-859061021616,e31d4e7d-80c0-4f50-ae05-859061021616,projectseed_production_april2024,5,,264808,406,html-button-response,"Mozilla/5.0 (Linux; Android 10; K) AppleWebKit/537.36 (KHTML, like Gecko) Chrome/124.0.0.0 Mobile Safari/537.36",,1824,980,100.0,100.0,-25.0,50.0,259839.80000001192,B,8125.0,267964.8000000119,102.0,0.0,1.0,2175.0,100.0,
0,1234,-999999,0,0,IowaTask-v2.0,-mobile,jspsych-0.3a-mobile,1,List1,2024-04-29,0,0,projectseed-iowa-production,0.0-0.0-2.0-0.102,eng,6e64b31c6348ac9d094febdaa4fdb26e97e83af1,True,adolescent,14821.0,800,360,800,360,e31d4e7d-80c0-4f50-ae05-859061021616,e31d4e7d-80c0-4f50-ae05-859061021616,projectseed_production_april2024,5,,280954,410,html-button-response,"Mozilla/5.0 (Linux; Android 10; K) AppleWebKit/537.36 (KHTML, like Gecko) Chrome/124.0.0.0 Mobile Safari/537.36",,1824,980,100.0,100.0,-25.0,50.0,269289.09999999404,D,14821.0,284110.09999999404,103.0,0.0,3.0,2225.0,50.0,
0,1234,-999999,0,0,IowaTask-v2.0,-mobile,jspsych-0.3a-mobile,1,List1,2024-04-29,0,0,projectseed-iowa-production,0.0-0.0-2.0-0.103,eng,6e64b31c6348ac9d094febdaa4fdb26e97e83af1,True,adolescent,986.0,800,360,800,360,e31d4e7d-80c0-4f50-ae05-859061021616,e31d4e7d-80c0-4f50-ae05-859061021616,projectseed_production_april2024,5,,283266,414,html-button-response,"Mozilla/5.0 (Linux; Android 10; K) AppleWebKit/537.36 (KHTML, like Gecko) Chrome/124.0.0.0 Mobile Safari/537.36",,1824,980,100.0,100.0,-25.0,50.0,285436.2000000179,D,986.0,286422.2000000179,104.0,0.0,3.0,2275.0,50.0,
0,1234,-999999,0,0,IowaTask-v2.0,-mobile,jspsych-0.3a-mobile,1,List1,2024-04-29,0,0,projectseed-iowa-production,0.0-0.0-2.0-0.104,eng,6e64b31c6348ac9d094febdaa4fdb26e97e83af1,True,adolescent,1460.0,800,360,800,360,e31d4e7d-80c0-4f50-ae05-859061021616,e31d4e7d-80c0-4f50-ae05-859061021616,projectseed_production_april2024,5,,286046,418,html-button-response,"Mozilla/5.0 (Linux; Android 10; K) AppleWebKit/537.36 (KHTML, like Gecko) Chrome/124.0.0.0 Mobile Safari/537.36",,1824,980,100.0,100.0,-25.0,50.0,287741.8000000119,B,1460.0,289201.8000000119,105.0,0.0,1.0,2375.0,100.0,
0,1234,-999999,0,0,IowaTask-v2.0,-mobile,jspsych-0.3a-mobile,1,List1,2024-04-29,0,0,projectseed-iowa-production,0.0-0.0-2.0-0.105,eng,6e64b31c6348ac9d094febdaa4fdb26e97e83af1,True,adolescent,1213.0,800,360,800,360,e31d4e7d-80c0-4f50-ae05-859061021616,e31d4e7d-80c0-4f50-ae05-859061021616,projectseed_production_april2024,5,,288574,422,html-button-response,"Mozilla/5.0 (Linux; Android 10; K) AppleWebKit/537.36 (KHTML, like Gecko) Chrome/124.0.0.0 Mobile Safari/537.36",,1824,980,100.0,100.0,-25.0,50.0,290517.3000000119,D,1213.0,291730.3000000119,106.0,0.0,3.0,2425.0,50.0,
0,1234,-999999,0,0,IowaTask-v2.0,-mobile,jspsych-0.3a-mobile,1,List1,2024-04-29,0,0,projectseed-iowa-production,0.0-0.0-2.0-0.106,eng,6e64b31c6348ac9d094febdaa4fdb26e97e83af1,True,adolescent,2527.0,800,360,800,360,e31d4e7d-80c0-4f50-ae05-859061021616,e31d4e7d-80c0-4f50-ae05-859061021616,projectseed_production_april2024,5,,292424,426,html-button-response,"Mozilla/5.0 (Linux; Android 10; K) AppleWebKit/537.36 (KHTML, like Gecko) Chrome/124.0.0.0 Mobile Safari/537.36",,1824,980,100.0,100.0,-25.0,50.0,293053.59999999404,D,2527.0,295580.59999999404,107.0,0.0,3.0,2475.0,50.0,
0,1234,-999999,0,0,IowaTask-v2.0,-mobile,jspsych-0.3a-mobile,1,List1,2024-04-29,0,0,projectseed-iowa-production,0.0-0.0-2.0-0.107,eng,6e64b31c6348ac9d094febdaa4fdb26e97e83af1,True,adolescent,465.0,800,360,800,360,e31d4e7d-80c0-4f50-ae05-859061021616,e31d4e7d-80c0-4f50-ae05-859061021616,projectseed_production_april2024,5,,294224,430,html-button-response,"Mozilla/5.0 (Linux; Android 10; K) AppleWebKit/537.36 (KHTML, like Gecko) Chrome/124.0.0.0 Mobile Safari/537.36",,1824,980,100.0,100.0,-25.0,50.0,296914.5,D,465.0,297379.5,108.0,0.0,3.0,2525.0,50.0,
0,1234,-999999,0,0,IowaTask-v2.0,-mobile,jspsych-0.3a-mobile,1,List1,2024-04-29,0,0,projectseed-iowa-production,0.0-0.0-2.0-0.108,eng,6e64b31c6348ac9d094febdaa4fdb26e97e83af1,True,adolescent,599.0,800,360,800,360,e31d4e7d-80c0-4f50-ae05-859061021616,e31d4e7d-80c0-4f50-ae05-859061021616,projectseed_production_april2024,5,,296152,434,html-button-response,"Mozilla/5.0 (Linux; Android 10; K) AppleWebKit/537.36 (KHTML, like Gecko) Chrome/124.0.0.0 Mobile Safari/537.36",,1824,980,100.0,100.0,-25.0,50.0,298709.09999999404,D,599.0,299308.09999999404,109.0,0.0,3.0,2575.0,50.0,
0,1234,-999999,0,0,IowaTask-v2.0,-mobile,jspsych-0.3a-mobile,1,List1,2024-04-29,0,0,projectseed-iowa-production,0.0-0.0-2.0-0.109,eng,6e64b31c6348ac9d094febdaa4fdb26e97e83af1,True,adolescent,1097.0,800,360,800,360,e31d4e7d-80c0-4f50-ae05-859061021616,e31d4e7d-80c0-4f50-ae05-859061021616,projectseed_production_april2024,5,,298573,438,html-button-response,"Mozilla/5.0 (Linux; Android 10; K) AppleWebKit/537.36 (KHTML, like Gecko) Chrome/124.0.0.0 Mobile Safari/537.36",,1824,980,100.0,100.0,-25.0,50.0,300632.40000000596,D,1097.0,301729.40000000596,110.0,0.0,3.0,2625.0,50.0,
0,1234,-999999,0,0,IowaTask-v2.0,-mobile,jspsych-0.3a-mobile,1,List1,2024-04-29,0,0,projectseed-iowa-production,0.0-0.0-2.0-0.110,eng,6e64b31c6348ac9d094febdaa4fdb26e97e83af1,True,adolescent,915.0,800,360,800,360,e31d4e7d-80c0-4f50-ae05-859061021616,e31d4e7d-80c0-4f50-ae05-859061021616,projectseed_production_april2024,5,,300811,442,html-button-response,"Mozilla/5.0 (Linux; Android 10; K) AppleWebKit/537.36 (KHTML, like Gecko) Chrome/124.0.0.0 Mobile Safari/537.36",,1824,980,100.0,100.0,-25.0,50.0,303052.5,B,915.0,303967.5,111.0,0.0,1.0,2725.0,100.0,
0,1234,-999999,0,0,IowaTask-v2.0,-mobile,jspsych-0.3a-mobile,1,List1,2024-04-29,0,0,projectseed-iowa-production,0.0-0.0-2.0-0.111,eng,6e64b31c6348ac9d094febdaa4fdb26e97e83af1,True,adolescent,818.0,800,360,800,360,e31d4e7d-80c0-4f50-ae05-859061021616,e31d4e7d-80c0-4f50-ae05-859061021616,projectseed_production_april2024,5,,302948,446,html-button-response,"Mozilla/5.0 (Linux; Android 10; K) AppleWebKit/537.36 (KHTML, like Gecko) Chrome/124.0.0.0 Mobile Safari/537.36",,1824,980,100.0,100.0,-25.0,50.0,305284.8000000119,D,818.0,306102.8000000119,112.0,0.0,3.0,2775.0,50.0,
0,1234,-999999,0,0,IowaTask-v2.0,-mobile,jspsych-0.3a-mobile,1,List1,2024-04-29,0,0,projectseed-iowa-production,0.0-0.0-2.0-0.112,eng,6e64b31c6348ac9d094febdaa4fdb26e97e83af1,True,adolescent,469.0,800,360,800,360,e31d4e7d-80c0-4f50-ae05-859061021616,e31d4e7d-80c0-4f50-ae05-859061021616,projectseed_production_april2024,5,,304741,450,html-button-response,"Mozilla/5.0 (Linux; Android 10; K) AppleWebKit/537.36 (KHTML, like Gecko) Chrome/124.0.0.0 Mobile Safari/537.36",,1824,980,100.0,100.0,-25.0,-200.0,307428.40000000596,D,469.0,307897.40000000596,113.0,-250.0,3.0,2575.0,-200.0,
0,1234,-999999,0,0,IowaTask-v2.0,-mobile,jspsych-0.3a-mobile,1,List1,2024-04-29,0,0,projectseed-iowa-production,0.0-0.0-2.0-0.113,eng,6e64b31c6348ac9d094febdaa4fdb26e97e83af1,True,adolescent,707.0,800,360,800,360,e31d4e7d-80c0-4f50-ae05-859061021616,e31d4e7d-80c0-4f50-ae05-859061021616,projectseed_production_april2024,5,,307779,454,html-button-response,"Mozilla/5.0 (Linux; Android 10; K) AppleWebKit/537.36 (KHTML, like Gecko) Chrome/124.0.0.0 Mobile Safari/537.36",,1824,980,100.0,100.0,-25.0,50.0,310228.8000000119,D,707.0,310935.8000000119,114.0,0.0,3.0,2625.0,50.0,
0,1234,-999999,0,0,IowaTask-v2.0,-mobile,jspsych-0.3a-mobile,1,List1,2024-04-29,0,0,projectseed-iowa-production,0.0-0.0-2.0-0.114,eng,6e64b31c6348ac9d094febdaa4fdb26e97e83af1,True,adolescent,530.0,800,360,800,360,e31d4e7d-80c0-4f50-ae05-859061021616,e31d4e7d-80c0-4f50-ae05-859061021616,projectseed_production_april2024,5,,309631,458,html-button-response,"Mozilla/5.0 (Linux; Android 10; K) AppleWebKit/537.36 (KHTML, like Gecko) Chrome/124.0.0.0 Mobile Safari/537.36",,1824,980,100.0,100.0,-25.0,50.0,312258.40000000596,D,530.0,312788.40000000596,115.0,0.0,3.0,2675.0,50.0,
0,1234,-999999,0,0,IowaTask-v2.0,-mobile,jspsych-0.3a-mobile,1,List1,2024-04-29,0,0,projectseed-iowa-production,0.0-0.0-2.0-0.115,eng,6e64b31c6348ac9d094febdaa4fdb26e97e83af1,True,adolescent,579.0,800,360,800,360,e31d4e7d-80c0-4f50-ae05-859061021616,e31d4e7d-80c0-4f50-ae05-859061021616,projectseed_production_april2024,5,,311534,462,html-button-response,"Mozilla/5.0 (Linux; Android 10; K) AppleWebKit/537.36 (KHTML, like Gecko) Chrome/124.0.0.0 Mobile Safari/537.36",,1824,980,100.0,100.0,-25.0,50.0,314111.8000000119,D,579.0,314690.8000000119,116.0,0.0,3.0,2725.0,50.0,
0,1234,-999999,0,0,IowaTask-v2.0,-mobile,jspsych-0.3a-mobile,1,List1,2024-04-29,0,0,projectseed-iowa-production,0.0-0.0-2.0-0.116,eng,6e64b31c6348ac9d094febdaa4fdb26e97e83af1,True,adolescent,1020.0,800,360,800,360,e31d4e7d-80c0-4f50-ae05-859061021616,e31d4e7d-80c0-4f50-ae05-859061021616,projectseed_production_april2024,5,,313872,466,html-button-response,"Mozilla/5.0 (Linux; Android 10; K) AppleWebKit/537.36 (KHTML, like Gecko) Chrome/124.0.0.0 Mobile Safari/537.36",,1824,980,100.0,100.0,-25.0,50.0,316008.5,D,1020.0,317028.5,117.0,0.0,3.0,2775.0,50.0,
0,1234,-999999,0,0,IowaTask-v2.0,-mobile,jspsych-0.3a-mobile,1,List1,2024-04-29,0,0,projectseed-iowa-production,0.0-0.0-2.0-0.117,eng,6e64b31c6348ac9d094febdaa4fdb26e97e83af1,True,adolescent,631.0,800,360,800,360,e31d4e7d-80c0-4f50-ae05-859061021616,e31d4e7d-80c0-4f50-ae05-859061021616,projectseed_production_april2024,5,,315824,470,html-button-response,"Mozilla/5.0 (Linux; Android 10; K) AppleWebKit/537.36 (KHTML, like Gecko) Chrome/124.0.0.0 Mobile Safari/537.36",,1824,980,100.0,100.0,-25.0,50.0,318349.59999999404,A,631.0,318980.59999999404,118.0,0.0,0.0,2875.0,100.0,
0,1234,-999999,0,0,IowaTask-v2.0,-mobile,jspsych-0.3a-mobile,1,List1,2024-04-29,0,0,projectseed-iowa-production,0.0-0.0-2.0-0.118,eng,6e64b31c6348ac9d094febdaa4fdb26e97e83af1,True,adolescent,453.0,800,360,800,360,e31d4e7d-80c0-4f50-ae05-859061021616,e31d4e7d-80c0-4f50-ae05-859061021616,projectseed_production_april2024,5,,317595,474,html-button-response,"Mozilla/5.0 (Linux; Android 10; K) AppleWebKit/537.36 (KHTML, like Gecko) Chrome/124.0.0.0 Mobile Safari/537.36",,1824,980,100.0,100.0,-25.0,50.0,320298.3000000119,D,453.0,320751.3000000119,119.0,0.0,3.0,2925.0,50.0,
0,1234,-999999,0,0,IowaTask-v2.0,-mobile,jspsych-0.3a-mobile,1,List1,2024-04-29,0,0,projectseed-iowa-production,0.0-0.0-2.0-0.119,eng,6e64b31c6348ac9d094febdaa4fdb26e97e83af1,True,adolescent,671.0,800,360,800,360,e31d4e7d-80c0-4f50-ae05-859061021616,e31d4e7d-80c0-4f50-ae05-859061021616,projectseed_production_april2024,5,,319588,478,html-button-response,"Mozilla/5.0 (Linux; Android 10; K) AppleWebKit/537.36 (KHTML, like Gecko) Chrome/124.0.0.0 Mobile Safari/537.36",,1824,980,100.0,100.0,-25.0,50.0,322073.5,D,671.0,322744.5,120.0,0.0,3.0,2975.0,50.0,
0,1234,-999999,0,0,IowaTask-v2.0,-mobile,jspsych-0.3a-mobile,1,List1,2024-04-29,0,0,projectseed-iowa-production,0.0-0.0-2.0-0.120,eng,6e64b31c6348ac9d094febdaa4fdb26e97e83af1,True,adolescent,480.0,800,360,800,360,e31d4e7d-80c0-4f50-ae05-859061021616,e31d4e7d-80c0-4f50-ae05-859061021616,projectseed_production_april2024,5,,321391,482,html-button-response,"Mozilla/5.0 (Linux; Android 10; K) AppleWebKit/537.36 (KHTML, like Gecko) Chrome/124.0.0.0 Mobile Safari/537.36",,1824,980,100.0,100.0,-25.0,50.0,324066.8000000119,D,480.0,324546.8000000119,121.0,0.0,3.0,3025.0,50.0,
0,1234,-999999,0,0,IowaTask-v2.0,-mobile,jspsych-0.3a-mobile,1,List1,2024-04-29,0,0,projectseed-iowa-production,0.0-0.0-2.0-0.121,eng,6e64b31c6348ac9d094febdaa4fdb26e97e83af1,True,adolescent,474.0,800,360,800,360,e31d4e7d-80c0-4f50-ae05-859061021616,e31d4e7d-80c0-4f50-ae05-859061021616,projectseed_production_april2024,5,,323188,486,html-button-response,"Mozilla/5.0 (Linux; Android 10; K) AppleWebKit/537.36 (KHTML, like Gecko) Chrome/124.0.0.0 Mobile Safari/537.36",,1824,980,100.0,100.0,-25.0,50.0,325870.2000000179,D,474.0,326344.2000000179,122.0,0.0,3.0,3075.0,50.0,
0,1234,-999999,0,0,IowaTask-v2.0,-mobile,jspsych-0.3a-mobile,1,List1,2024-04-29,0,0,projectseed-iowa-production,0.0-0.0-2.0-0.122,eng,6e64b31c6348ac9d094febdaa4fdb26e97e83af1,True,adolescent,518.0,800,360,800,360,e31d4e7d-80c0-4f50-ae05-859061021616,e31d4e7d-80c0-4f50-ae05-859061021616,projectseed_production_april2024,5,,325029,490,html-button-response,"Mozilla/5.0 (Linux; Android 10; K) AppleWebKit/537.36 (KHTML, like Gecko) Chrome/124.0.0.0 Mobile Safari/537.36",,1824,980,100.0,100.0,-25.0,-200.0,327667.09999999404,B,518.0,328185.09999999404,123.0,0.0,1.0,3175.0,100.0,
0,1234,-999999,0,0,IowaTask-v2.0,-mobile,jspsych-0.3a-mobile,1,List1,2024-04-29,0,0,projectseed-iowa-production,0.0-0.0-2.0-0.123,eng,6e64b31c6348ac9d094febdaa4fdb26e97e83af1,True,adolescent,464.0,800,360,800,360,e31d4e7d-80c0-4f50-ae05-859061021616,e31d4e7d-80c0-4f50-ae05-859061021616,projectseed_production_april2024,5,,326807,494,html-button-response,"Mozilla/5.0 (Linux; Android 10; K) AppleWebKit/537.36 (KHTML, like Gecko) Chrome/124.0.0.0 Mobile Safari/537.36",,1824,980,100.0,100.0,-25.0,-200.0,329499.2000000179,D,464.0,329963.2000000179,124.0,-250.0,3.0,2975.0,-200.0,
0,1234,-999999,0,0,IowaTask-v2.0,-mobile,jspsych-0.3a-mobile,1,List1,2024-04-29,0,0,projectseed-iowa-production,0.0-0.0-2.0-0.124,eng,6e64b31c6348ac9d094febdaa4fdb26e97e83af1,True,adolescent,545.0,800,360,800,360,e31d4e7d-80c0-4f50-ae05-859061021616,e31d4e7d-80c0-4f50-ae05-859061021616,projectseed_production_april2024,5,,329678,498,html-button-response,"Mozilla/5.0 (Linux; Android 10; K) AppleWebKit/537.36 (KHTML, like Gecko) Chrome/124.0.0.0 Mobile Safari/537.36",,1824,980,100.0,100.0,-25.0,50.0,332289.59999999404,B,545.0,332834.59999999404,125.0,0.0,1.0,3075.0,100.0,
0,1234,-999999,0,0,IowaTask-v2.0,-mobile,jspsych-0.3a-mobile,1,List1,2024-04-29,0,0,projectseed-iowa-production,0.0-0.0-2.0-0.125,eng,6e64b31c6348ac9d094febdaa4fdb26e97e83af1,True,adolescent,461.0,800,360,800,360,e31d4e7d-80c0-4f50-ae05-859061021616,e31d4e7d-80c0-4f50-ae05-859061021616,projectseed_production_april2024,5,,331463,502,html-button-response,"Mozilla/5.0 (Linux; Android 10; K) AppleWebKit/537.36 (KHTML, like Gecko) Chrome/124.0.0.0 Mobile Safari/537.36",,1824,980,100.0,-1150.0,-25.0,50.0,334158.7000000179,A,461.0,334619.7000000179,126.0,0.0,0.0,3175.0,100.0,
0,1234,-999999,0,0,IowaTask-v2.0,-mobile,jspsych-0.3a-mobile,1,List1,2024-04-29,0,0,projectseed-iowa-production,0.0-0.0-2.0-0.126,eng,6e64b31c6348ac9d094febdaa4fdb26e97e83af1,True,adolescent,407.0,800,360,800,360,e31d4e7d-80c0-4f50-ae05-859061021616,e31d4e7d-80c0-4f50-ae05-859061021616,projectseed_production_april2024,5,,333191,506,html-button-response,"Mozilla/5.0 (Linux; Android 10; K) AppleWebKit/537.36 (KHTML, like Gecko) Chrome/124.0.0.0 Mobile Safari/537.36",,1824,980,-250.0,-1150.0,-25.0,50.0,335940.8000000119,D,407.0,336347.8000000119,127.0,0.0,3.0,3225.0,50.0,
0,1234,-999999,0,0,IowaTask-v2.0,-mobile,jspsych-0.3a-mobile,1,List1,2024-04-29,0,0,projectseed-iowa-production,0.0-0.0-2.0-0.127,eng,6e64b31c6348ac9d094febdaa4fdb26e97e83af1,True,adolescent,448.0,800,360,800,360,e31d4e7d-80c0-4f50-ae05-859061021616,e31d4e7d-80c0-4f50-ae05-859061021616,projectseed_production_april2024,5,,334961,510,html-button-response,"Mozilla/5.0 (Linux; Android 10; K) AppleWebKit/537.36 (KHTML, like Gecko) Chrome/124.0.0.0 Mobile Safari/537.36",,1824,980,-250.0,-1150.0,-25.0,50.0,337668.7000000179,D,448.0,338116.7000000179,128.0,0.0,3.0,3275.0,50.0,
0,1234,-999999,0,0,IowaTask-v2.0,-mobile,jspsych-0.3a-mobile,1,List1,2024-04-29,0,0,projectseed-iowa-production,0.0-0.0-2.0-0.128,eng,6e64b31c6348ac9d094febdaa4fdb26e97e83af1,True,adolescent,489.0,800,360,800,360,e31d4e7d-80c0-4f50-ae05-859061021616,e31d4e7d-80c0-4f50-ae05-859061021616,projectseed_production_april2024,5,,336770,514,html-button-response,"Mozilla/5.0 (Linux; Android 10; K) AppleWebKit/537.36 (KHTML, like Gecko) Chrome/124.0.0.0 Mobile Safari/537.36",,1824,980,-250.0,-1150.0,-25.0,50.0,339437.40000000596,D,489.0,339926.40000000596,129.0,0.0,3.0,3325.0,50.0,
0,1234,-999999,0,0,IowaTask-v2.0,-mobile,jspsych-0.3a-mobile,1,List1,2024-04-29,0,0,projectseed-iowa-production,0.0-0.0-2.0-0.129,eng,6e64b31c6348ac9d094febdaa4fdb26e97e83af1,True,adolescent,421.0,800,360,800,360,e31d4e7d-80c0-4f50-ae05-859061021616,e31d4e7d-80c0-4f50-ae05-859061021616,projectseed_production_april2024,5,,338518,518,html-button-response,"Mozilla/5.0 (Linux; Android 10; K) AppleWebKit/537.36 (KHTML, like Gecko) Chrome/124.0.0.0 Mobile Safari/537.36",,1824,980,-250.0,-1150.0,-25.0,50.0,341253.09999999404,B,421.0,341674.09999999404,130.0,-1250.0,1.0,2175.0,-1150.0,
0,1234,-999999,0,0,IowaTask-v2.0,-mobile,jspsych-0.3a-mobile,1,List1,2024-04-29,0,0,projectseed-iowa-production,0.0-0.0-2.0-0.130,eng,6e64b31c6348ac9d094febdaa4fdb26e97e83af1,True,adolescent,997.0,800,360,800,360,e31d4e7d-80c0-4f50-ae05-859061021616,e31d4e7d-80c0-4f50-ae05-859061021616,projectseed_production_april2024,5,,341843,522,html-button-response,"Mozilla/5.0 (Linux; Android 10; K) AppleWebKit/537.36 (KHTML, like Gecko) Chrome/124.0.0.0 Mobile Safari/537.36",,1824,980,-250.0,100.0,-25.0,50.0,344002.40000000596,D,997.0,344999.40000000596,131.0,0.0,3.0,2225.0,50.0,
0,1234,-999999,0,0,IowaTask-v2.0,-mobile,jspsych-0.3a-mobile,1,List1,2024-04-29,0,0,projectseed-iowa-production,0.0-0.0-2.0-0.131,eng,6e64b31c6348ac9d094febdaa4fdb26e97e83af1,True,adolescent,388.0,800,360,800,360,e31d4e7d-80c0-4f50-ae05-859061021616,e31d4e7d-80c0-4f50-ae05-859061021616,projectseed_production_april2024,5,,343557,526,html-button-response,"Mozilla/5.0 (Linux; Android 10; K) AppleWebKit/537.36 (KHTML, like Gecko) Chrome/124.0.0.0 Mobile Safari/537.36",,1824,980,-250.0,100.0,-25.0,50.0,346324.90000000596,D,388.0,346712.90000000596,132.0,0.0,3.0,2275.0,50.0,
0,1234,-999999,0,0,IowaTask-v2.0,-mobile,jspsych-0.3a-mobile,1,List1,2024-04-29,0,0,projectseed-iowa-production,0.0-0.0-2.0-0.132,eng,6e64b31c6348ac9d094febdaa4fdb26e97e83af1,True,adolescent,556.0,800,360,800,360,e31d4e7d-80c0-4f50-ae05-859061021616,e31d4e7d-80c0-4f50-ae05-859061021616,projectseed_production_april2024,5,,345434,530,html-button-response,"Mozilla/5.0 (Linux; Android 10; K) AppleWebKit/537.36 (KHTML, like Gecko) Chrome/124.0.0.0 Mobile Safari/537.36",,1824,980,-250.0,100.0,-25.0,50.0,348034.7000000179,D,556.0,348590.7000000179,133.0,0.0,3.0,2325.0,50.0,
0,1234,-999999,0,0,IowaTask-v2.0,-mobile,jspsych-0.3a-mobile,1,List1,2024-04-29,0,0,projectseed-iowa-production,0.0-0.0-2.0-0.133,eng,6e64b31c6348ac9d094febdaa4fdb26e97e83af1,True,adolescent,395.0,800,360,800,360,e31d4e7d-80c0-4f50-ae05-859061021616,e31d4e7d-80c0-4f50-ae05-859061021616,projectseed_production_april2024,5,,347154,534,html-button-response,"Mozilla/5.0 (Linux; Android 10; K) AppleWebKit/537.36 (KHTML, like Gecko) Chrome/124.0.0.0 Mobile Safari/537.36",,1824,980,-250.0,100.0,-25.0,50.0,349915.5,D,395.0,350310.5,134.0,0.0,3.0,2375.0,50.0,
0,1234,-999999,0,0,IowaTask-v2.0,-mobile,jspsych-0.3a-mobile,1,List1,2024-04-29,0,0,projectseed-iowa-production,0.0-0.0-2.0-0.134,eng,6e64b31c6348ac9d094febdaa4fdb26e97e83af1,True,adolescent,437.0,800,360,800,360,e31d4e7d-80c0-4f50-ae05-859061021616,e31d4e7d-80c0-4f50-ae05-859061021616,projectseed_production_april2024,5,,348915,538,html-button-response,"Mozilla/5.0 (Linux; Android 10; K) AppleWebKit/537.36 (KHTML, like Gecko) Chrome/124.0.0.0 Mobile Safari/537.36",,1824,980,-250.0,100.0,-25.0,-200.0,351634.40000000596,B,437.0,352071.40000000596,135.0,0.0,1.0,2475.0,100.0,
0,1234,-999999,0,0,IowaTask-v2.0,-mobile,jspsych-0.3a-mobile,1,List1,2024-04-29,0,0,projectseed-iowa-production,0.0-0.0-2.0-0.135,eng,6e64b31c6348ac9d094febdaa4fdb26e97e83af1,True,adolescent,449.0,800,360,800,360,e31d4e7d-80c0-4f50-ae05-859061021616,e31d4e7d-80c0-4f50-ae05-859061021616,projectseed_production_april2024,5,,350685,542,html-button-response,"Mozilla/5.0 (Linux; Android 10; K) AppleWebKit/537.36 (KHTML, like Gecko) Chrome/124.0.0.0 Mobile Safari/537.36",,1824,980,-250.0,100.0,-25.0,-200.0,353392.8000000119,D,449.0,353841.8000000119,136.0,-250.0,3.0,2275.0,-200.0,
0,1234,-999999,0,0,IowaTask-v2.0,-mobile,jspsych-0.3a-mobile,1,List1,2024-04-29,0,0,projectseed-iowa-production,0.0-0.0-2.0-0.136,eng,6e64b31c6348ac9d094febdaa4fdb26e97e83af1,True,adolescent,733.0,800,360,800,360,e31d4e7d-80c0-4f50-ae05-859061021616,e31d4e7d-80c0-4f50-ae05-859061021616,projectseed_production_april2024,5,,353748,546,html-button-response,"Mozilla/5.0 (Linux; Android 10; K) AppleWebKit/537.36 (KHTML, like Gecko) Chrome/124.0.0.0 Mobile Safari/537.36",,1824,980,-250.0,100.0,-25.0,50.0,356171.2000000179,A,733.0,356904.2000000179,137.0,-350.0,0.0,2025.0,-250.0,
0,1234,-999999,0,0,IowaTask-v2.0,-mobile,jspsych-0.3a-mobile,1,List1,2024-04-29,0,0,projectseed-iowa-production,0.0-0.0-2.0-0.137,eng,6e64b31c6348ac9d094febdaa4fdb26e97e83af1,True,adolescent,1879.0,800,360,800,360,e31d4e7d-80c0-4f50-ae05-859061021616,e31d4e7d-80c0-4f50-ae05-859061021616,projectseed_production_april2024,5,,357955,550,html-button-response,"Mozilla/5.0 (Linux; Android 10; K) AppleWebKit/537.36 (KHTML, like Gecko) Chrome/124.0.0.0 Mobile Safari/537.36",,1824,980,-100.0,100.0,-25.0,50.0,359232.40000000596,D,1879.0,361111.40000000596,138.0,0.0,3.0,2075.0,50.0,
0,1234,-999999,0,0,IowaTask-v2.0,-mobile,jspsych-0.3a-mobile,1,List1,2024-04-29,0,0,projectseed-iowa-production,0.0-0.0-2.0-0.138,eng,6e64b31c6348ac9d094febdaa4fdb26e97e83af1,True,adolescent,611.0,800,360,800,360,e31d4e7d-80c0-4f50-ae05-859061021616,e31d4e7d-80c0-4f50-ae05-859061021616,projectseed_production_april2024,5,,359891,554,html-button-response,"Mozilla/5.0 (Linux; Android 10; K) AppleWebKit/537.36 (KHTML, like Gecko) Chrome/124.0.0.0 Mobile Safari/537.36",,1824,980,-100.0,100.0,-25.0,50.0,362435.90000000596,D,611.0,363046.90000000596,139.0,0.0,3.0,2125.0,50.0,
0,1234,-999999,0,0,IowaTask-v2.0,-mobile,jspsych-0.3a-mobile,1,List1,2024-04-29,0,0,projectseed-iowa-production,0.0-0.0-2.0-0.139,eng,6e64b31c6348ac9d094febdaa4fdb26e97e83af1,True,adolescent,1025.0,800,360,800,360,e31d4e7d-80c0-4f50-ae05-859061021616,e31d4e7d-80c0-4f50-ae05-859061021616,projectseed_production_april2024,5,,362240,558,html-button-response,"Mozilla/5.0 (Linux; Android 10; K) AppleWebKit/537.36 (KHTML, like Gecko) Chrome/124.0.0.0 Mobile Safari/537.36",,1824,980,-100.0,100.0,-25.0,50.0,364371.2000000179,D,1025.0,365396.2000000179,140.0,0.0,3.0,2175.0,50.0,
0,1234,-999999,0,0,IowaTask-v2.0,-mobile,jspsych-0.3a-mobile,1,List1,2024-04-29,0,0,projectseed-iowa-production,0.0-0.0-2.0-0.140,eng,6e64b31c6348ac9d094febdaa4fdb26e97e83af1,True,adolescent,574.0,800,360,800,360,e31d4e7d-80c0-4f50-ae05-859061021616,e31d4e7d-80c0-4f50-ae05-859061021616,projectseed_production_april2024,5,,364130,562,html-button-response,"Mozilla/5.0 (Linux; Android 10; K) AppleWebKit/537.36 (KHTML, like Gecko) Chrome/124.0.0.0 Mobile Safari/537.36",,1824,980,-100.0,100.0,-25.0,50.0,366712.59999999404,D,574.0,367286.59999999404,141.0,0.0,3.0,2225.0,50.0,
0,1234,-999999,0,0,IowaTask-v2.0,-mobile,jspsych-0.3a-mobile,1,List1,2024-04-29,0,0,projectseed-iowa-production,0.0-0.0-2.0-0.141,eng,6e64b31c6348ac9d094febdaa4fdb26e97e83af1,True,adolescent,1504.0,800,360,800,360,e31d4e7d-80c0-4f50-ae05-859061021616,e31d4e7d-80c0-4f50-ae05-859061021616,projectseed_production_april2024,5,,366963,566,html-button-response,"Mozilla/5.0 (Linux; Android 10; K) AppleWebKit/537.36 (KHTML, like Gecko) Chrome/124.0.0.0 Mobile Safari/537.36",,1824,980,-100.0,100.0,-25.0,50.0,368615.40000000596,D,1504.0,370119.40000000596,142.0,0.0,3.0,2275.0,50.0,
0,1234,-999999,0,0,IowaTask-v2.0,-mobile,jspsych-0.3a-mobile,1,List1,2024-04-29,0,0,projectseed-iowa-production,0.0-0.0-2.0-0.142,eng,6e64b31c6348ac9d094febdaa4fdb26e97e83af1,True,adolescent,936.0,800,360,800,360,e31d4e7d-80c0-4f50-ae05-859061021616,e31d4e7d-80c0-4f50-ae05-859061021616,projectseed_production_april2024,5,,369219,570,html-button-response,"Mozilla/5.0 (Linux; Android 10; K) AppleWebKit/537.36 (KHTML, like Gecko) Chrome/124.0.0.0 Mobile Safari/537.36",,1824,980,-100.0,100.0,-25.0,50.0,371439.90000000596,D,936.0,372375.90000000596,143.0,0.0,3.0,2325.0,50.0,
0,1234,-999999,0,0,IowaTask-v2.0,-mobile,jspsych-0.3a-mobile,1,List1,2024-04-29,0,0,projectseed-iowa-production,0.0-0.0-2.0-0.143,eng,6e64b31c6348ac9d094febdaa4fdb26e97e83af1,True,adolescent,697.0,800,360,800,360,e31d4e7d-80c0-4f50-ae05-859061021616,e31d4e7d-80c0-4f50-ae05-859061021616,projectseed_production_april2024,5,,371243,574,html-button-response,"Mozilla/5.0 (Linux; Android 10; K) AppleWebKit/537.36 (KHTML, like Gecko) Chrome/124.0.0.0 Mobile Safari/537.36",,1824,980,-100.0,100.0,-25.0,50.0,373701.90000000596,D,697.0,374398.90000000596,144.0,0.0,3.0,2375.0,50.0,
0,1234,-999999,0,0,IowaTask-v2.0,-mobile,jspsych-0.3a-mobile,1,List1,2024-04-29,0,0,projectseed-iowa-production,0.0-0.0-2.0-0.144,eng,6e64b31c6348ac9d094febdaa4fdb26e97e83af1,True,adolescent,440.0,800,360,800,360,e31d4e7d-80c0-4f50-ae05-859061021616,e31d4e7d-80c0-4f50-ae05-859061021616,projectseed_production_april2024,5,,373009,578,html-button-response,"Mozilla/5.0 (Linux; Android 10; K) AppleWebKit/537.36 (KHTML, like Gecko) Chrome/124.0.0.0 Mobile Safari/537.36",,1824,980,-100.0,100.0,-25.0,50.0,375725.0,D,440.0,376165.0,145.0,0.0,3.0,2425.0,50.0,
0,1234,-999999,0,0,IowaTask-v2.0,-mobile,jspsych-0.3a-mobile,1,List1,2024-04-29,0,0,projectseed-iowa-production,0.0-0.0-2.0-0.145,eng,6e64b31c6348ac9d094febdaa4fdb26e97e83af1,True,adolescent,429.0,800,360,800,360,e31d4e7d-80c0-4f50-ae05-859061021616,e31d4e7d-80c0-4f50-ae05-859061021616,projectseed_production_april2024,5,,374766,582,html-button-response,"Mozilla/5.0 (Linux; Android 10; K) AppleWebKit/537.36 (KHTML, like Gecko) Chrome/124.0.0.0 Mobile Safari/537.36",,1824,980,-100.0,100.0,-25.0,50.0,377493.09999999404,D,429.0,377922.09999999404,146.0,0.0,3.0,2475.0,50.0,
0,1234,-999999,0,0,IowaTask-v2.0,-mobile,jspsych-0.3a-mobile,1,List1,2024-04-29,0,0,projectseed-iowa-production,0.0-0.0-2.0-0.146,eng,6e64b31c6348ac9d094febdaa4fdb26e97e83af1,True,adolescent,690.0,800,360,800,360,e31d4e7d-80c0-4f50-ae05-859061021616,e31d4e7d-80c0-4f50-ae05-859061021616,projectseed_production_april2024,5,,376782,586,html-button-response,"Mozilla/5.0 (Linux; Android 10; K) AppleWebKit/537.36 (KHTML, like Gecko) Chrome/124.0.0.0 Mobile Safari/537.36",,1824,980,-100.0,100.0,-25.0,-200.0,379248.09999999404,D,690.0,379938.09999999404,147.0,-250.0,3.0,2275.0,-200.0,
0,1234,-999999,0,0,IowaTask-v2.0,-mobile,jspsych-0.3a-mobile,1,List1,2024-04-29,0,0,projectseed-iowa-production,0.0-0.0-2.0-0.147,eng,6e64b31c6348ac9d094febdaa4fdb26e97e83af1,True,adolescent,391.0,800,360,800,360,e31d4e7d-80c0-4f50-ae05-859061021616,e31d4e7d-80c0-4f50-ae05-859061021616,projectseed_production_april2024,5,,379510,590,html-button-response,"Mozilla/5.0 (Linux; Android 10; K) AppleWebKit/537.36 (KHTML, like Gecko) Chrome/124.0.0.0 Mobile Safari/537.36",,1824,980,-100.0,100.0,-25.0,50.0,382275.40000000596,D,391.0,382666.40000000596,148.0,0.0,3.0,2325.0,50.0,
0,1234,-999999,0,0,IowaTask-v2.0,-mobile,jspsych-0.3a-mobile,1,List1,2024-04-29,0,0,projectseed-iowa-production,0.0-0.0-2.0-0.148,eng,6e64b31c6348ac9d094febdaa4fdb26e97e83af1,True,adolescent,269.0,800,360,800,360,e31d4e7d-80c0-4f50-ae05-859061021616,e31d4e7d-80c0-4f50-ae05-859061021616,projectseed_production_april2024,5,,381105,594,html-button-response,"Mozilla/5.0 (Linux; Android 10; K) AppleWebKit/537.36 (KHTML, like Gecko) Chrome/124.0.0.0 Mobile Safari/537.36",,1824,980,-100.0,100.0,-25.0,50.0,383992.40000000596,D,269.0,384261.40000000596,149.0,0.0,3.0,2375.0,50.0,
0,1234,-999999,0,0,IowaTask-v2.0,-mobile,jspsych-0.3a-mobile,1,List1,2024-04-29,0,0,projectseed-iowa-production,0.0-0.0-2.0-0.149,eng,6e64b31c6348ac9d094febdaa4fdb26e97e83af1,True,adolescent,199.0,800,360,800,360,e31d4e7d-80c0-4f50-ae05-859061021616,e31d4e7d-80c0-4f50-ae05-859061021616,projectseed_production_april2024,5,,382632,598,html-button-response,"Mozilla/5.0 (Linux; Android 10; K) AppleWebKit/537.36 (KHTML, like Gecko) Chrome/124.0.0.0 Mobile Safari/537.36",,1824,980,-100.0,100.0,-25.0,50.0,385589.0,D,199.0,385788.0,150.0,0.0,3.0,2425.0,50.0,
0,1234,-999999,0,0,IowaTask-v2.0,-mobile,jspsych-0.3a-mobile,1,List1,2024-04-29,0,0,projectseed-iowa-production,0.0-0.0-2.0-0.150,eng,6e64b31c6348ac9d094febdaa4fdb26e97e83af1,True,adolescent,172.0,800,360,800,360,e31d4e7d-80c0-4f50-ae05-859061021616,e31d4e7d-80c0-4f50-ae05-859061021616,projectseed_production_april2024,5,,384134,602,html-button-response,"Mozilla/5.0 (Linux; Android 10; K) AppleWebKit/537.36 (KHTML, like Gecko) Chrome/124.0.0.0 Mobile Safari/537.36",,1824,980,-100.0,100.0,-25.0,50.0,387117.90000000596,D,172.0,387289.90000000596,151.0,0.0,3.0,2475.0,50.0,
0,1234,-999999,0,0,IowaTask-v2.0,-mobile,jspsych-0.3a-mobile,1,List1,2024-04-29,0,0,projectseed-iowa-production,0.0-0.0-2.0-0.151,eng,6e64b31c6348ac9d094febdaa4fdb26e97e83af1,True,adolescent,4406.0,800,360,800,360,e31d4e7d-80c0-4f50-ae05-859061021616,e31d4e7d-80c0-4f50-ae05-859061021616,projectseed_production_april2024,5,,389864,606,html-button-response,"Mozilla/5.0 (Linux; Android 10; K) AppleWebKit/537.36 (KHTML, like Gecko) Chrome/124.0.0.0 Mobile Safari/537.36",,1824,980,-100.0,100.0,-25.0,50.0,388615.0,B,4406.0,393021.0,152.0,0.0,1.0,2575.0,100.0,
0,1234,-999999,0,0,IowaTask-v2.0,-mobile,jspsych-0.3a-mobile,1,List1,2024-04-29,0,0,projectseed-iowa-production,0.0-0.0-2.0-0.152,eng,6e64b31c6348ac9d094febdaa4fdb26e97e83af1,True,adolescent,1499.0,800,360,800,360,e31d4e7d-80c0-4f50-ae05-859061021616,e31d4e7d-80c0-4f50-ae05-859061021616,projectseed_production_april2024,5,,392690,610,html-button-response,"Mozilla/5.0 (Linux; Android 10; K) AppleWebKit/537.36 (KHTML, like Gecko) Chrome/124.0.0.0 Mobile Safari/537.36",,1824,980,-100.0,100.0,-25.0,50.0,394347.5,A,1499.0,395846.5,153.0,-200.0,0.0,2475.0,-100.0,
0,1234,-999999,0,0,IowaTask-v2.0,-mobile,jspsych-0.3a-mobile,1,List1,2024-04-29,0,0,projectseed-iowa-production,0.0-0.0-2.0-0.153,eng,6e64b31c6348ac9d094febdaa4fdb26e97e83af1,True,adolescent,630.0,800,360,800,360,e31d4e7d-80c0-4f50-ae05-859061021616,e31d4e7d-80c0-4f50-ae05-859061021616,projectseed_production_april2024,5,,395649,614,html-button-response,"Mozilla/5.0 (Linux; Android 10; K) AppleWebKit/537.36 (KHTML, like Gecko) Chrome/124.0.0.0 Mobile Safari/537.36",,1824,980,100.0,100.0,-25.0,50.0,398175.59999999404,B,630.0,398805.59999999404,154.0,0.0,1.0,2575.0,100.0,
0,1234,-999999,0,0,IowaTask-v2.0,-mobile,jspsych-0.3a-mobile,1,List1,2024-04-29,0,0,projectseed-iowa-production,0.0-0.0-2.0-0.154,eng,6e64b31c6348ac9d094febdaa4fdb26e97e83af1,True,adolescent,1652.0,800,360,800,360,e31d4e7d-80c0-4f50-ae05-859061021616,e31d4e7d-80c0-4f50-ae05-859061021616,projectseed_production_april2024,5,,398628,618,html-button-response,"Mozilla/5.0 (Linux; Android 10; K) AppleWebKit/537.36 (KHTML, like Gecko) Chrome/124.0.0.0 Mobile Safari/537.36",,1824,980,100.0,100.0,-25.0,50.0,400132.59999999404,D,1652.0,401784.59999999404,155.0,0.0,3.0,2625.0,50.0,
0,1234,-999999,0,0,IowaTask-v2.0,-mobile,jspsych-0.3a-mobile,1,List1,2024-04-29,0,0,projectseed-iowa-production,0.0-0.0-2.0-0.155,eng,6e64b31c6348ac9d094febdaa4fdb26e97e83af1,True,adolescent,349.0,800,360,800,360,e31d4e7d-80c0-4f50-ae05-859061021616,e31d4e7d-80c0-4f50-ae05-859061021616,projectseed_production_april2024,5,,400299,622,html-button-response,"Mozilla/5.0 (Linux; Android 10; K) AppleWebKit/537.36 (KHTML, like Gecko) Chrome/124.0.0.0 Mobile Safari/537.36",,1824,980,100.0,100.0,-25.0,50.0,403106.09999999404,D,349.0,403455.09999999404,156.0,0.0,3.0,2675.0,50.0,
0,1234,-999999,0,0,IowaTask-v2.0,-mobile,jspsych-0.3a-mobile,1,List1,2024-04-29,0,0,projectseed-iowa-production,0.0-0.0-2.0-0.156,eng,6e64b31c6348ac9d094febdaa4fdb26e97e83af1,True,adolescent,56.0,800,360,800,360,e31d4e7d-80c0-4f50-ae05-859061021616,e31d4e7d-80c0-4f50-ae05-859061021616,projectseed_production_april2024,5,,401675,626,html-button-response,"Mozilla/5.0 (Linux; Android 10; K) AppleWebKit/537.36 (KHTML, like Gecko) Chrome/124.0.0.0 Mobile Safari/537.36",,1824,980,100.0,100.0,-25.0,50.0,404775.40000000596,D,56.0,404831.40000000596,157.0,0.0,3.0,2725.0,50.0,
0,1234,-999999,0,0,IowaTask-v2.0,-mobile,jspsych-0.3a-mobile,1,List1,2024-04-29,0,0,projectseed-iowa-production,0.0-0.0-2.0-0.157,eng,6e64b31c6348ac9d094febdaa4fdb26e97e83af1,True,adolescent,38.0,800,360,800,360,e31d4e7d-80c0-4f50-ae05-859061021616,e31d4e7d-80c0-4f50-ae05-859061021616,projectseed_production_april2024,5,,403030,630,html-button-response,"Mozilla/5.0 (Linux; Android 10; K) AppleWebKit/537.36 (KHTML, like Gecko) Chrome/124.0.0.0 Mobile Safari/537.36",,1824,980,100.0,100.0,-25.0,50.0,406148.8000000119,D,38.0,406186.8000000119,158.0,0.0,3.0,2775.0,50.0,
0,1234,-999999,0,0,IowaTask-v2.0,-mobile,jspsych-0.3a-mobile,1,List1,2024-04-29,0,0,projectseed-iowa-production,0.0-0.0-2.0-0.158,eng,6e64b31c6348ac9d094febdaa4fdb26e97e83af1,True,adolescent,1686.0,800,360,800,360,e31d4e7d-80c0-4f50-ae05-859061021616,e31d4e7d-80c0-4f50-ae05-859061021616,projectseed_production_april2024,5,,406036,634,html-button-response,"Mozilla/5.0 (Linux; Android 10; K) AppleWebKit/537.36 (KHTML, like Gecko) Chrome/124.0.0.0 Mobile Safari/537.36",,1824,980,100.0,100.0,-25.0,50.0,407506.8000000119,B,1686.0,409192.8000000119,159.0,0.0,1.0,2875.0,100.0,
0,1234,-999999,0,0,IowaTask-v2.0,-mobile,jspsych-0.3a-mobile,1,List1,2024-04-29,0,0,projectseed-iowa-production,0.0-0.0-2.0-0.159,eng,6e64b31c6348ac9d094febdaa4fdb26e97e83af1,True,adolescent,516.0,800,360,800,360,e31d4e7d-80c0-4f50-ae05-859061021616,e31d4e7d-80c0-4f50-ae05-859061021616,projectseed_production_april2024,5,,407877,638,html-button-response,"Mozilla/5.0 (Linux; Android 10; K) AppleWebKit/537.36 (KHTML, like Gecko) Chrome/124.0.0.0 Mobile Safari/537.36",,1824,980,100.0,100.0,-25.0,50.0,410518.2000000179,A,516.0,411034.2000000179,160.0,0.0,0.0,2975.0,100.0,
0,1234,-999999,0,0,IowaTask-v2.0,-mobile,jspsych-0.3a-mobile,1,List1,2024-04-29,0,0,projectseed-iowa-production,0.0-0.0-2.0-0.160,eng,6e64b31c6348ac9d094febdaa4fdb26e97e83af1,True,adolescent,424.0,800,360,800,360,e31d4e7d-80c0-4f50-ae05-859061021616,e31d4e7d-80c0-4f50-ae05-859061021616,projectseed_production_april2024,5,,409623,642,html-button-response,"Mozilla/5.0 (Linux; Android 10; K) AppleWebKit/537.36 (KHTML, like Gecko) Chrome/124.0.0.0 Mobile Safari/537.36",,1824,980,-150.0,100.0,-25.0,50.0,412355.7000000179,D,424.0,412779.7000000179,161.0,0.0,3.0,3025.0,50.0,
0,1234,-999999,0,0,IowaTask-v2.0,-mobile,jspsych-0.3a-mobile,1,List1,2024-04-29,0,0,projectseed-iowa-production,0.0-0.0-2.0-0.161,eng,6e64b31c6348ac9d094febdaa4fdb26e97e83af1,True,adolescent,509.0,800,360,800,360,e31d4e7d-80c0-4f50-ae05-859061021616,e31d4e7d-80c0-4f50-ae05-859061021616,projectseed_production_april2024,5,,411450,646,html-button-response,"Mozilla/5.0 (Linux; Android 10; K) AppleWebKit/537.36 (KHTML, like Gecko) Chrome/124.0.0.0 Mobile Safari/537.36",,1824,980,-150.0,100.0,-25.0,50.0,414097.3000000119,D,509.0,414606.3000000119,162.0,0.0,3.0,3075.0,50.0,
0,1234,-999999,0,0,IowaTask-v2.0,-mobile,jspsych-0.3a-mobile,1,List1,2024-04-29,0,0,projectseed-iowa-production,0.0-0.0-2.0-0.162,eng,6e64b31c6348ac9d094febdaa4fdb26e97e83af1,True,adolescent,452.0,800,360,800,360,e31d4e7d-80c0-4f50-ae05-859061021616,e31d4e7d-80c0-4f50-ae05-859061021616,projectseed_production_april2024,5,,413222,650,html-button-response,"Mozilla/5.0 (Linux; Android 10; K) AppleWebKit/537.36 (KHTML, like Gecko) Chrome/124.0.0.0 Mobile Safari/537.36",,1824,980,-150.0,100.0,-25.0,50.0,415926.2000000179,D,452.0,416378.2000000179,163.0,0.0,3.0,3125.0,50.0,
0,1234,-999999,0,0,IowaTask-v2.0,-mobile,jspsych-0.3a-mobile,1,List1,2024-04-29,0,0,projectseed-iowa-production,0.0-0.0-2.0-0.163,eng,6e64b31c6348ac9d094febdaa4fdb26e97e83af1,True,adolescent,254.0,800,360,800,360,e31d4e7d-80c0-4f50-ae05-859061021616,e31d4e7d-80c0-4f50-ae05-859061021616,projectseed_production_april2024,5,,414797,654,html-button-response,"Mozilla/5.0 (Linux; Android 10; K) AppleWebKit/537.36 (KHTML, like Gecko) Chrome/124.0.0.0 Mobile Safari/537.36",,1824,980,-150.0,100.0,-25.0,50.0,417699.8000000119,D,254.0,417953.8000000119,164.0,0.0,3.0,3175.0,50.0,
0,1234,-999999,0,0,IowaTask-v2.0,-mobile,jspsych-0.3a-mobile,1,List1,2024-04-29,0,0,projectseed-iowa-production,0.0-0.0-2.0-0.164,eng,6e64b31c6348ac9d094febdaa4fdb26e97e83af1,True,adolescent,532.0,800,360,800,360,e31d4e7d-80c0-4f50-ae05-859061021616,e31d4e7d-80c0-4f50-ae05-859061021616,projectseed_production_april2024,5,,416652,658,html-button-response,"Mozilla/5.0 (Linux; Android 10; K) AppleWebKit/537.36 (KHTML, like Gecko) Chrome/124.0.0.0 Mobile Safari/537.36",,1824,980,-150.0,100.0,-25.0,-200.0,419276.2000000179,D,532.0,419808.2000000179,165.0,-250.0,3.0,2975.0,-200.0,
0,1234,-999999,0,0,IowaTask-v2.0,-mobile,jspsych-0.3a-mobile,1,List1,2024-04-29,0,0,projectseed-iowa-production,0.0-0.0-2.0-0.165,eng,6e64b31c6348ac9d094febdaa4fdb26e97e83af1,True,adolescent,138.0,800,360,800,360,e31d4e7d-80c0-4f50-ae05-859061021616,e31d4e7d-80c0-4f50-ae05-859061021616,projectseed_production_april2024,5,,419122,662,html-button-response,"Mozilla/5.0 (Linux; Android 10; K) AppleWebKit/537.36 (KHTML, like Gecko) Chrome/124.0.0.0 Mobile Safari/537.36",,1824,980,-150.0,100.0,-25.0,50.0,422141.59999999404,D,138.0,422279.59999999404,166.0,0.0,3.0,3025.0,50.0,
0,1234,-999999,0,0,IowaTask-v2.0,-mobile,jspsych-0.3a-mobile,1,List1,2024-04-29,0,0,projectseed-iowa-production,0.0-0.0-2.0-0.166,eng,6e64b31c6348ac9d094febdaa4fdb26e97e83af1,True,adolescent,42.0,800,360,800,360,e31d4e7d-80c0-4f50-ae05-859061021616,e31d4e7d-80c0-4f50-ae05-859061021616,projectseed_production_april2024,5,,420525,666,html-button-response,"Mozilla/5.0 (Linux; Android 10; K) AppleWebKit/537.36 (KHTML, like Gecko) Chrome/124.0.0.0 Mobile Safari/537.36",,1824,980,-150.0,100.0,-25.0,50.0,423639.8000000119,D,42.0,423681.8000000119,167.0,0.0,3.0,3075.0,50.0,
0,1234,-999999,0,0,IowaTask-v2.0,-mobile,jspsych-0.3a-mobile,1,List1,2024-04-29,0,0,projectseed-iowa-production,0.0-0.0-2.0-0.167,eng,6e64b31c6348ac9d094febdaa4fdb26e97e83af1,True,adolescent,45.0,800,360,800,360,e31d4e7d-80c0-4f50-ae05-859061021616,e31d4e7d-80c0-4f50-ae05-859061021616,projectseed_production_april2024,5,,421935,670,html-button-response,"Mozilla/5.0 (Linux; Android 10; K) AppleWebKit/537.36 (KHTML, like Gecko) Chrome/124.0.0.0 Mobile Safari/537.36",,1824,980,-150.0,100.0,-25.0,50.0,425046.90000000596,D,45.0,425091.90000000596,168.0,0.0,3.0,3125.0,50.0,
0,1234,-999999,0,0,IowaTask-v2.0,-mobile,jspsych-0.3a-mobile,1,List1,2024-04-29,0,0,projectseed-iowa-production,0.0-0.0-2.0-0.168,eng,6e64b31c6348ac9d094febdaa4fdb26e97e83af1,True,adolescent,131.0,800,360,800,360,e31d4e7d-80c0-4f50-ae05-859061021616,e31d4e7d-80c0-4f50-ae05-859061021616,projectseed_production_april2024,5,,423386,674,html-button-response,"Mozilla/5.0 (Linux; Android 10; K) AppleWebKit/537.36 (KHTML, like Gecko) Chrome/124.0.0.0 Mobile Safari/537.36",,1824,980,-150.0,100.0,-25.0,50.0,426411.3000000119,D,131.0,426542.3000000119,169.0,0.0,3.0,3175.0,50.0,
0,1234,-999999,0,0,IowaTask-v2.0,-mobile,jspsych-0.3a-mobile,1,List1,2024-04-29,0,0,projectseed-iowa-production,0.0-0.0-2.0-0.169,eng,6e64b31c6348ac9d094febdaa4fdb26e97e83af1,True,adolescent,3209.0,800,360,800,360,e31d4e7d-80c0-4f50-ae05-859061021616,e31d4e7d-80c0-4f50-ae05-859061021616,projectseed_production_april2024,5,,427918,678,html-button-response,"Mozilla/5.0 (Linux; Android 10; K) AppleWebKit/537.36 (KHTML, like Gecko) Chrome/124.0.0.0 Mobile Safari/537.36",,1824,980,-150.0,100.0,-25.0,50.0,427865.8000000119,B,3209.0,431074.8000000119,170.0,0.0,1.0,3275.0,100.0,
0,1234,-999999,0,0,IowaTask-v2.0,-mobile,jspsych-0.3a-mobile,1,List1,2024-04-29,0,0,projectseed-iowa-production,0.0-0.0-2.0-0.170,eng,6e64b31c6348ac9d094febdaa4fdb26e97e83af1,True,adolescent,1255.0,800,360,800,360,e31d4e7d-80c0-4f50-ae05-859061021616,e31d4e7d-80c0-4f50-ae05-859061021616,projectseed_production_april2024,5,,430501,682,html-button-response,"Mozilla/5.0 (Linux; Android 10; K) AppleWebKit/537.36 (KHTML, like Gecko) Chrome/124.0.0.0 Mobile Safari/537.36",,1824,980,-150.0,100.0,-25.0,50.0,432402.59999999404,D,1255.0,433657.59999999404,171.0,0.0,3.0,3325.0,50.0,
0,1234,-999999,0,0,IowaTask-v2.0,-mobile,jspsych-0.3a-mobile,1,List1,2024-04-29,0,0,projectseed-iowa-production,0.0-0.0-2.0-0.171,eng,6e64b31c6348ac9d094febdaa4fdb26e97e83af1,True,adolescent,74.0,800,360,800,360,e31d4e7d-80c0-4f50-ae05-859061021616,e31d4e7d-80c0-4f50-ae05-859061021616,projectseed_production_april2024,5,,431894,686,html-button-response,"Mozilla/5.0 (Linux; Android 10; K) AppleWebKit/537.36 (KHTML, like Gecko) Chrome/124.0.0.0 Mobile Safari/537.36",,1824,980,-150.0,100.0,-25.0,50.0,434976.09999999404,D,74.0,435050.09999999404,172.0,0.0,3.0,3375.0,50.0,
0,1234,-999999,0,0,IowaTask-v2.0,-mobile,jspsych-0.3a-mobile,1,List1,2024-04-29,0,0,projectseed-iowa-production,0.0-0.0-2.0-0.172,eng,6e64b31c6348ac9d094febdaa4fdb26e97e83af1,True,adolescent,430.0,800,360,800,360,e31d4e7d-80c0-4f50-ae05-859061021616,e31d4e7d-80c0-4f50-ae05-859061021616,projectseed_production_april2024,5,,433654,690,html-button-response,"Mozilla/5.0 (Linux; Android 10; K) AppleWebKit/537.36 (KHTML, like Gecko) Chrome/124.0.0.0 Mobile Safari/537.36",,1824,980,-150.0,100.0,-25.0,50.0,436381.09999999404,D,430.0,436811.09999999404,173.0,0.0,3.0,3425.0,50.0,
