Deck_ACC,Deck_CRESP,Deck_DurationError,Deck_OnsetDelay,Deck_OnsetToOnsetTime,ExperimentName,ExperimentPlatform,ExperimentVersion,List1_Cycle,Running,cycle_start_date,day,expected_trial_count,experiment_name,internal_node_id,lang,last_commit,on_mobile,role,rt,screen_availHeight,screen_availWidth,screen_height,screen_width,session_id,session_uuid,study_id,subject_id,task_section,time_elapsed,trial_index,trial_type,useragent,view_history,window_innerHeight,window_innerWidth,DeckA,DeckB,DeckC,DeckD,Deck_OnsetTime,Deck_RESP,Deck_RT,Deck_RTTime,List1_Sample,loss_event,response,totalsum,var,stimulus
0,1234,-999999,0,0,IowaTask-v2.0,-mobile,jspsych-0.3a-mobile,1,List1,2024-04-29,1,0,projectseed-iowa-production,0.0-0.0-2.0-0.0,eng,6e64b31c6348ac9d094febdaa4fdb26e97e83af1,True,adolescent,1055.0,844,390,844,390,d0ed5bee-2678-4b0c-973e-46d7c8d5b605,d0ed5bee-2678-4b0c-973e-46d7c8d5b605,projectseed_production_april2024,1,,15763,2,html-button-response,"Mozilla/5.0 (iPhone; CPU iPhone OS 17_4_1 like Mac OS X) AppleWebKit/605.1.15 (KHTML, like Gecko) Version/17.4.1 Mobile/15E148 Safari/604.1",,1665,980,100.0,100.0,50.0,50.0,15450.0,B,1055.0,16505.0,1.0,0.0,1.0,2100.0,100.0,
0,1234,-999999,0,0,IowaTask-v2.0,-mobile,jspsych-0.3a-mobile,1,List1,2024-04-29,1,0,projectseed-iowa-production,0.0-0.0-2.0-0.1,eng,6e64b31c6348ac9d094febdaa4fdb26e97e83af1,True,adolescent,483.0,844,390,844,390,d0ed5bee-2678-4b0c-973e-46d7c8d5b605,d0ed5bee-2678-4b0c-973e-46d7c8d5b605,projectseed_production_april2024,1,,17600,6,html-button-response,"Mozilla/5.0 (iPhone; CPU iPhone OS 17_4_1 like Mac OS X) AppleWebKit/605.1.15 (KHTML, like Gecko) Version/17.4.1 Mobile/15E148 Safari/604.1",,1665,980,100.0,100.0,50.0,50.0,17857.0,A,483.0,18340.0,2.0,0.0,0.0,2200.0,100.0,
0,1234,-999999,0,0,IowaTask-v2.0,-mobile,jspsych-0.3a-mobile,1,List1,2024-04-29,1,0,projectseed-iowa-production,0.0-0.0-2.0-0.2,eng,6e64b31c6348ac9d094febdaa4fdb26e97e83af1,True,adolescent,432.0,844,390,844,390,d0ed5bee-2678-4b0c-973e-46d7c8d5b605,d0ed5bee-2678-4b0c-973e-46d7c8d5b605,projectseed_production_april2024,1,,19387,10,html-button-response,"Mozilla/5.0 (iPhone; CPU iPhone OS 17_4_1 like Mac OS X) AppleWebKit/605.1.15 (KHTML, like Gecko) Version/17.4.1 Mobile/15E148 Safari/604.1",,1665,980,-250.0,100.0,50.0,50.0,19694.0,D,432.0,20126.0,3.0,0.0,3.0,2250.0,50.0,
0,1234,-999999,0,0,IowaTask-v2.0,-mobile,jspsych-0.3a-mobile,1,List1,2024-04-29,1,0,projectseed-iowa-production,0.0-0.0-2.0-0.3,eng,6e64b31c6348ac9d094febdaa4fdb26e97e83af1,True,adolescent,38.0,844,390,844,390,d0ed5bee-2678-4b0c-973e-46d7c8d5b605,d0ed5bee-2678-4b0c-973e-46d7c8d5b605,projectseed_production_april2024,1,,20766,14,html-button-response,"Mozilla/5.0 (iPhone; CPU iPhone OS 17_4_1 like Mac OS X) AppleWebKit/605.1.15 (KHTML, like Gecko) Version/17.4.1 Mobile/15E148 Safari/604.1",,1665,980,-250.0,100.0,50.0,50.0,21466.0,C,38.0,21504.0,4.0,0.0,2.0,2300.0,50.0,
0,1234,-999999,0,0,IowaTask-v2.0,-mobile,jspsych-0.3a-mobile,1,List1,2024-04-29,1,0,projectseed-iowa-production,0.0-0.0-2.0-0.4,eng,6e64b31c6348ac9d094febdaa4fdb26e97e83af1,True,adolescent,66.0,844,390,844,390,d0ed5bee-2678-4b0c-973e-46d7c8d5b605,d0ed5bee-2678-4b0c-973e-46d7c8d5b605,projectseed_production_april2024,1,,22183,18,html-button-response,"Mozilla/5.0 (iPhone; CPU iPhone OS 17_4_1 like Mac OS X) AppleWebKit/605.1.15 (KHTML, like Gecko) Version/17.4.1 Mobile/15E148 Safari/604.1",,1665,980,-250.0,100.0,0.0,50.0,22854.0,B,66.0,22920.0,5.0,0.0,1.0,2400.0,100.0,
0,1234,-999999,0,0,IowaTask-v2.0,-mobile,jspsych-0.3a-mobile,1,List1,2024-04-29,1,0,projectseed-iowa-production,0.0-0.0-2.0-0.5,eng,6e64b31c6348ac9d094febdaa4fdb26e97e83af1,True,adolescent,98.0,844,390,844,390,d0ed5bee-2678-4b0c-973e-46d7c8d5b605,d0ed5bee-2678-4b0c-973e-46d7c8d5b605,projectseed_production_april2024,1,,23634,22,html-button-response,"Mozilla/5.0 (iPhone; CPU iPhone OS 17_4_1 like Mac OS X) AppleWebKit/605.1.15 (KHTML, like Gecko) Version/17.4.1 Mobile/15E148 Safari/604.1",,1665,980,-250.0,100.0,0.0,50.0,24273.000000000004,A,98.0,24371.000000000004,6.0,-350.0,0.0,2150.0,-250.0,
0,1234,-999999,0,0,IowaTask-v2.0,-mobile,jspsych-0.3a-mobile,1,List1,2024-04-29,1,0,projectseed-iowa-production,0.0-0.0-2.0-0.6,eng,6e64b31c6348ac9d094febdaa4fdb26e97e83af1,True,adolescent,49.0,844,390,844,390,d0ed5bee-2678-4b0c-973e-46d7c8d5b605,d0ed5bee-2678-4b0c-973e-46d7c8d5b605,projectseed_production_april2024,1,,26037,26,html-button-response,"Mozilla/5.0 (iPhone; CPU iPhone OS 17_4_1 like Mac OS X) AppleWebKit/605.1.15 (KHTML, like Gecko) Version/17.4.1 Mobile/15E148 Safari/604.1",,1665,980,-200.0,100.0,0.0,50.0,26724.0,D,49.0,26773.0,7.0,0.0,3.0,2200.0,50.0,
0,1234,-999999,0,0,IowaTask-v2.0,-mobile,jspsych-0.3a-mobile,1,List1,2024-04-29,1,0,projectseed-iowa-production,0.0-0.0-2.0-0.7,eng,6e64b31c6348ac9d094febdaa4fdb26e97e83af1,True,adolescent,256.0,844,390,844,390,d0ed5bee-2678-4b0c-973e-46d7c8d5b605,d0ed5bee-2678-4b0c-973e-46d7c8d5b605,projectseed_production_april2024,1,,27645,30,html-button-response,"Mozilla/5.0 (iPhone; CPU iPhone OS 17_4_1 like Mac OS X) AppleWebKit/605.1.15 (KHTML, like Gecko) Version/17.4.1 Mobile/15E148 Safari/604.1",,1665,980,-200.0,100.0,0.0,50.0,28124.0,C,256.0,28380.0,8.0,-50.0,2.0,2200.0,0.0,
0,1234,-999999,0,0,IowaTask-v2.0,-mobile,jspsych-0.3a-mobile,1,List1,2024-04-29,1,0,projectseed-iowa-production,0.0-0.0-2.0-0.8,eng,6e64b31c6348ac9d094febdaa4fdb26e97e83af1,True,adolescent,570.0,844,390,844,390,d0ed5bee-2678-4b0c-973e-46d7c8d5b605,d0ed5bee-2678-4b0c-973e-46d7c8d5b605,projectseed_production_april2024,1,,30567,34,html-button-response,"Mozilla/5.0 (iPhone; CPU iPhone OS 17_4_1 like Mac OS X) AppleWebKit/605.1.15 (KHTML, like Gecko) Version/17.4.1 Mobile/15E148 Safari/604.1",,1665,980,-200.0,100.0,-25.0,50.0,30731.000000000004,C,570.0,31301.000000000004,9.0,-75.0,2.0,2175.0,-25.0,
0,1234,-999999,0,0,IowaTask-v2.0,-mobile,jspsych-0.3a-mobile,1,List1,2024-04-29,1,0,projectseed-iowa-production,0.0-0.0-2.0-0.9,eng,6e64b31c6348ac9d094febdaa4fdb26e97e83af1,True,adolescent,364.0,844,390,844,390,d0ed5bee-2678-4b0c-973e-46d7c8d5b605,d0ed5bee-2678-4b0c-973e-46d7c8d5b605,projectseed_production_april2024,1,,33285,38,html-button-response,"Mozilla/5.0 (iPhone; CPU iPhone OS 17_4_1 like Mac OS X) AppleWebKit/605.1.15 (KHTML, like Gecko) Version/17.4.1 Mobile/15E148 Safari/604.1",,1665,980,-200.0,100.0,-25.0,50.0,33655.0,B,364.0,34019.0,10.0,0.0,1.0,2275.0,100.0,
0,1234,-999999,0,0,IowaTask-v2.0,-mobile,jspsych-0.3a-mobile,1,List1,2024-04-29,1,0,projectseed-iowa-production,0.0-0.0-2.0-0.10,eng,6e64b31c6348ac9d094febdaa4fdb26e97e83af1,True,adolescent,480.0,844,390,844,390,d0ed5bee-2678-4b0c-973e-46d7c8d5b605,d0ed5bee-2678-4b0c-973e-46d7c8d5b605,projectseed_production_april2024,1,,35118,42,html-button-response,"Mozilla/5.0 (iPhone; CPU iPhone OS 17_4_1 like Mac OS X) AppleWebKit/605.1.15 (KHTML, like Gecko) Version/17.4.1 Mobile/15E148 Safari/604.1",,1665,980,-200.0,100.0,-25.0,50.0,35371.0,B,480.0,35851.0,11.0,0.0,1.0,2375.0,100.0,
0,1234,-999999,0,0,IowaTask-v2.0,-mobile,jspsych-0.3a-mobile,1,List1,2024-04-29,1,0,projectseed-iowa-production,0.0-0.0-2.0-0.11,eng,6e64b31c6348ac9d094febdaa4fdb26e97e83af1,True,adolescent,468.0,844,390,844,390,d0ed5bee-2678-4b0c-973e-46d7c8d5b605,d0ed5bee-2678-4b0c-973e-46d7c8d5b605,projectseed_production_april2024,1,,36939,46,html-button-response,"Mozilla/5.0 (iPhone; CPU iPhone OS 17_4_1 like Mac OS X) AppleWebKit/605.1.15 (KHTML, like Gecko) Version/17.4.1 Mobile/15E148 Safari/604.1",,1665,980,-200.0,100.0,-25.0,50.0,37203.0,D,468.0,37671.0,12.0,0.0,3.0,2425.0,50.0,
0,1234,-999999,0,0,IowaTask-v2.0,-mobile,jspsych-0.3a-mobile,1,List1,2024-04-29,1,0,projectseed-iowa-production,0.0-0.0-2.0-0.12,eng,6e64b31c6348ac9d094febdaa4fdb26e97e83af1,True,adolescent,346.0,844,390,844,390,d0ed5bee-2678-4b0c-973e-46d7c8d5b605,d0ed5bee-2678-4b0c-973e-46d7c8d5b605,projectseed_production_april2024,1,,38638,50,html-button-response,"Mozilla/5.0 (iPhone; CPU iPhone OS 17_4_1 like Mac OS X) AppleWebKit/605.1.15 (KHTML, like Gecko) Version/17.4.1 Mobile/15E148 Safari/604.1",,1665,980,-200.0,100.0,-25.0,50.0,39025.0,B,346.0,39371.0,13.0,0.0,1.0,2525.0,100.0,
0,1234,-999999,0,0,IowaTask-v2.0,-mobile,jspsych-0.3a-mobile,1,List1,2024-04-29,1,0,projectseed-iowa-production,0.0-0.0-2.0-0.13,eng,6e64b31c6348ac9d094febdaa4fdb26e97e83af1,True,adolescent,449.0,844,390,844,390,d0ed5bee-2678-4b0c-973e-46d7c8d5b605,d0ed5bee-2678-4b0c-973e-46d7c8d5b605,projectseed_production_april2024,1,,40441,54,html-button-response,"Mozilla/5.0 (iPhone; CPU iPhone OS 17_4_1 like Mac OS X) AppleWebKit/605.1.15 (KHTML, like Gecko) Version/17.4.1 Mobile/15E148 Safari/604.1",,1665,980,-200.0,100.0,-25.0,50.0,40725.0,A,449.0,41174.0,14.0,-300.0,0.0,2325.0,-200.0,
0,1234,-999999,0,0,IowaTask-v2.0,-mobile,jspsych-0.3a-mobile,1,List1,2024-04-29,1,0,projectseed-iowa-production,0.0-0.0-2.0-0.14,eng,6e64b31c6348ac9d094febdaa4fdb26e97e83af1,True,adolescent,178.0,844,390,844,390,d0ed5bee-2678-4b0c-973e-46d7c8d5b605,d0ed5bee-2678-4b0c-973e-46d7c8d5b605,projectseed_production_april2024,1,,42972,58,html-button-response,"Mozilla/5.0 (iPhone; CPU iPhone OS 17_4_1 like Mac OS X) AppleWebKit/605.1.15 (KHTML, like Gecko) Version/17.4.1 Mobile/15E148 Safari/604.1",,1665,980,100.0,100.0,-25.0,50.0,43526.0,B,178.0,43704.0,15.0,0.0,1.0,2425.0,100.0,
0,1234,-999999,0,0,IowaTask-v2.0,-mobile,jspsych-0.3a-mobile,1,List1,2024-04-29,1,0,projectseed-iowa-production,0.0-0.0-2.0-0.15,eng,6e64b31c6348ac9d094febdaa4fdb26e97e83af1,True,adolescent,522.0,844,390,844,390,d0ed5bee-2678-4b0c-973e-46d7c8d5b605,d0ed5bee-2678-4b0c-973e-46d7c8d5b605,projectseed_production_april2024,1,,44846,62,html-button-response,"Mozilla/5.0 (iPhone; CPU iPhone OS 17_4_1 like Mac OS X) AppleWebKit/605.1.15 (KHTML, like Gecko) Version/17.4.1 Mobile/15E148 Safari/604.1",,1665,980,100.0,100.0,-25.0,50.0,45055.0,D,522.0,45577.0,16.0,0.0,3.0,2475.0,50.0,
0,1234,-999999,0,0,IowaTask-v2.0,-mobile,jspsych-0.3a-mobile,1,List1,2024-04-29,1,0,projectseed-iowa-production,0.0-0.0-2.0-0.16,eng,6e64b31c6348ac9d094febdaa4fdb26e97e83af1,True,adolescent,209.0,844,390,844,390,d0ed5bee-2678-4b0c-973e-46d7c8d5b605,d0ed5bee-2678-4b0c-973e-46d7c8d5b605,projectseed_production_april2024,1,,46408,66,html-button-response,"Mozilla/5.0 (iPhone; CPU iPhone OS 17_4_1 like Mac OS X) AppleWebKit/605.1.15 (KHTML, like Gecko) Version/17.4.1 Mobile/15E148 Safari/604.1",,1665,980,100.0,100.0,-25.0,-200.0,46929.0,D,209.0,47138.0,17.0,-250.0,3.0,2275.0,-200.0,
0,1234,-999999,0,0,IowaTask-v2.0,-mobile,jspsych-0.3a-mobile,1,List1,2024-04-29,1,0,projectseed-iowa-production,0.0-0.0-2.0-0.17,eng,6e64b31c6348ac9d094febdaa4fdb26e97e83af1,True,adolescent,268.0,844,390,844,390,d0ed5bee-2678-4b0c-973e-46d7c8d5b605,d0ed5bee-2678-4b0c-973e-46d7c8d5b605,projectseed_production_april2024,1,,49026,70,html-button-response,"Mozilla/5.0 (iPhone; CPU iPhone OS 17_4_1 like Mac OS X) AppleWebKit/605.1.15 (KHTML, like Gecko) Version/17.4.1 Mobile/15E148 Safari/604.1",,1665,980,100.0,100.0,-25.0,50.0,49489.0,C,268.0,49757.0,18.0,-75.0,2.0,2250.0,-25.0,
0,1234,-999999,0,0,IowaTask-v2.0,-mobile,jspsych-0.3a-mobile,1,List1,2024-04-29,1,0,projectseed-iowa-production,0.0-0.0-2.0-0.18,eng,6e64b31c6348ac9d094febdaa4fdb26e97e83af1,True,adolescent,68.0,844,390,844,390,d0ed5bee-2678-4b0c-973e-46d7c8d5b605,d0ed5bee-2678-4b0c-973e-46d7c8d5b605,projectseed_production_april2024,1,,51445,74,html-button-response,"Mozilla/5.0 (iPhone; CPU iPhone OS 17_4_1 like Mac OS X) AppleWebKit/605.1.15 (KHTML, like Gecko) Version/17.4.1 Mobile/15E148 Safari/604.1",,1665,980,100.0,100.0,50.0,50.0,52107.00000000001,B,68.0,52175.00000000001,19.0,0.0,1.0,2350.0,100.0,
0,1234,-999999,0,0,IowaTask-v2.0,-mobile,jspsych-0.3a-mobile,1,List1,2024-04-29,1,0,projectseed-iowa-production,0.0-0.0-2.0-0.19,eng,6e64b31c6348ac9d094febdaa4fdb26e97e83af1,True,adolescent,490.0,844,390,844,390,d0ed5bee-2678-4b0c-973e-46d7c8d5b605,d0ed5bee-2678-4b0c-973e-46d7c8d5b605,projectseed_production_april2024,1,,53286,78,html-button-response,"Mozilla/5.0 (iPhone; CPU iPhone OS 17_4_1 like Mac OS X) AppleWebKit/605.1.15 (KHTML, like Gecko) Version/17.4.1 Mobile/15E148 Safari/604.1",,1665,980,100.0,100.0,50.0,50.0,53526.0,B,490.0,54016.0,20.0,0.0,1.0,2450.0,100.0,
0,1234,-999999,0,0,IowaTask-v2.0,-mobile,jspsych-0.3a-mobile,1,List1,2024-04-29,1,0,projectseed-iowa-production,0.0-0.0-2.0-0.20,eng,6e64b31c6348ac9d094febdaa4fdb26e97e83af1,True,adolescent,467.0,844,390,844,390,d0ed5bee-2678-4b0c-973e-46d7c8d5b605,d0ed5bee-2678-4b0c-973e-46d7c8d5b605,projectseed_production_april2024,1,,55104,82,html-button-response,"Mozilla/5.0 (iPhone; CPU iPhone OS 17_4_1 like Mac OS X) AppleWebKit/605.1.15 (KHTML, like Gecko) Version/17.4.1 Mobile/15E148 Safari/604.1",,1665,980,100.0,-1150.0,50.0,50.0,55367.0,B,467.0,55834.0,21.0,-1250.0,1.0,1300.0,-1150.0,
0,1234,-999999,0,0,IowaTask-v2.0,-mobile,jspsych-0.3a-mobile,1,List1,2024-04-29,1,0,projectseed-iowa-production,0.0-0.0-2.0-0.21,eng,6e64b31c6348ac9d094febdaa4fdb26e97e83af1,True,adolescent,249.0,844,390,844,390,d0ed5bee-2678-4b0c-973e-46d7c8d5b605,d0ed5bee-2678-4b0c-973e-46d7c8d5b605,projectseed_production_april2024,1,,57705,86,html-button-response,"Mozilla/5.0 (iPhone; CPU iPhone OS 17_4_1 like Mac OS X) AppleWebKit/605.1.15 (KHTML, like Gecko) Version/17.4.1 Mobile/15E148 Safari/604.1",,1665,980,100.0,100.0,50.0,50.0,58186.0,A,249.0,58435.0,22.0,0.0,0.0,1400.0,100.0,
0,1234,-999999,0,0,IowaTask-v2.0,-mobile,jspsych-0.3a-mobile,1,List1,2024-04-29,1,0,projectseed-iowa-production,0.0-0.0-2.0-0.22,eng,6e64b31c6348ac9d094febdaa4fdb26e97e83af1,True,adolescent,333.0,844,390,844,390,d0ed5bee-2678-4b0c-973e-46d7c8d5b605,d0ed5bee-2678-4b0c-973e-46d7c8d5b605,projectseed_production_april2024,1,,59391,90,html-button-response,"Mozilla/5.0 (iPhone; CPU iPhone OS 17_4_1 like Mac OS X) AppleWebKit/605.1.15 (KHTML, like Gecko) Version/17.4.1 Mobile/15E148 Safari/604.1",,1665,980,-100.0,100.0,50.0,50.0,59788.0,B,333.0,60121.0,23.0,0.0,1.0,1500.0,100.0,
0,1234,-999999,0,0,IowaTask-v2.0,-mobile,jspsych-0.3a-mobile,1,List1,2024-04-29,1,0,projectseed-iowa-production,0.0-0.0-2.0-0.23,eng,6e64b31c6348ac9d094febdaa4fdb26e97e83af1,True,adolescent,247.0,844,390,844,390,d0ed5bee-2678-4b0c-973e-46d7c8d5b605,d0ed5bee-2678-4b0c-973e-46d7c8d5b605,projectseed_production_april2024,1,,60991,94,html-button-response,"Mozilla/5.0 (iPhone; CPU iPhone OS 17_4_1 like Mac OS X) AppleWebKit/605.1.15 (KHTML, like Gecko) Version/17.4.1 Mobile/15E148 Safari/604.1",,1665,980,-100.0,100.0,50.0,50.0,61474.0,A,247.0,61721.0,24.0,-200.0,0.0,1400.0,-100.0,
0,1234,-999999,0,0,IowaTask-v2.0,-mobile,jspsych-0.3a-mobile,1,List1,2024-04-29,1,0,projectseed-iowa-production,0.0-0.0-2.0-0.24,eng,6e64b31c6348ac9d094febdaa4fdb26e97e83af1,True,adolescent,268.0,844,390,844,390,d0ed5bee-2678-4b0c-973e-46d7c8d5b605,d0ed5bee-2678-4b0c-973e-46d7c8d5b605,projectseed_production_april2024,1,,63610,98,html-button-response,"Mozilla/5.0 (iPhone; CPU iPhone OS 17_4_1 like Mac OS X) AppleWebKit/605.1.15 (KHTML, like Gecko) Version/17.4.1 Mobile/15E148 Safari/604.1",,1665,980,100.0,100.0,50.0,50.0,64072.0,B,268.0,64340.0,25.0,0.0,1.0,1500.0,100.0,
0,1234,-999999,0,0,IowaTask-v2.0,-mobile,jspsych-0.3a-mobile,1,List1,2024-04-29,1,0,projectseed-iowa-production,0.0-0.0-2.0-0.25,eng,6e64b31c6348ac9d094febdaa4fdb26e97e83af1,True,adolescent,398.0,844,390,844,390,d0ed5bee-2678-4b0c-973e-46d7c8d5b605,d0ed5bee-2678-4b0c-973e-46d7c8d5b605,projectseed_production_april2024,1,,65362,102,html-button-response,"Mozilla/5.0 (iPhone; CPU iPhone OS 17_4_1 like Mac OS X) AppleWebKit/605.1.15 (KHTML, like Gecko) Version/17.4.1 Mobile/15E148 Safari/604.1",,1665,980,100.0,100.0,50.0,50.0,65693.00000000001,D,398.0,66091.00000000001,26.0,0.0,3.0,1550.0,50.0,
0,1234,-999999,0,0,IowaTask-v2.0,-mobile,jspsych-0.3a-mobile,1,List1,2024-04-29,1,0,projectseed-iowa-production,0.0-0.0-2.0-0.26,eng,6e64b31c6348ac9d094febdaa4fdb26e97e83af1,True,adolescent,297.0,844,390,844,390,d0ed5bee-2678-4b0c-973e-46d7c8d5b605,d0ed5bee-2678-4b0c-973e-46d7c8d5b605,projectseed_production_april2024,1,,67012,106,html-button-response,"Mozilla/5.0 (iPhone; CPU iPhone OS 17_4_1 like Mac OS X) AppleWebKit/605.1.15 (KHTML, like Gecko) Version/17.4.1 Mobile/15E148 Safari/604.1",,1665,980,100.0,100.0,50.0,50.0,67444.0,C,297.0,67741.0,27.0,0.0,2.0,1600.0,50.0,
0,1234,-999999,0,0,IowaTask-v2.0,-mobile,jspsych-0.3a-mobile,1,List1,2024-04-29,1,0,projectseed-iowa-production,0.0-0.0-2.0-0.27,eng,6e64b31c6348ac9d094febdaa4fdb26e97e83af1,True,adolescent,354.0,844,390,844,390,d0ed5bee-2678-4b0c-973e-46d7c8d5b605,d0ed5bee-2678-4b0c-973e-46d7c8d5b605,projectseed_production_april2024,1,,68716,110,html-button-response,"Mozilla/5.0 (iPhone; CPU iPhone OS 17_4_1 like Mac OS X) AppleWebKit/605.1.15 (KHTML, like Gecko) Version/17.4.1 Mobile/15E148 Safari/604.1",,1665,980,100.0,100.0,50.0,50.0,69091.00000000001,B,354.0,69445.00000000001,28.0,0.0,1.0,1700.0,100.0,
0,1234,-999999,0,0,IowaTask-v2.0,-mobile,jspsych-0.3a-mobile,1,List1,2024-04-29,1,0,projectseed-iowa-production,0.0-0.0-2.0-0.28,eng,6e64b31c6348ac9d094febdaa4fdb26e97e83af1,True,adolescent,280.0,844,390,844,390,d0ed5bee-2678-4b0c-973e-46d7c8d5b605,d0ed5bee-2678-4b0c-973e-46d7c8d5b605,projectseed_production_april2024,1,,70348,114,html-button-response,"Mozilla/5.0 (iPhone; CPU iPhone OS 17_4_1 like Mac OS X) AppleWebKit/605.1.15 (KHTML, like Gecko) Version/17.4.1 Mobile/15E148 Safari/604.1",,1665,980,100.0,100.0,50.0,50.0,70798.0,B,280.0,71078.0,29.0,0.0,1.0,1800.0,100.0,
0,1234,-999999,0,0,IowaTask-v2.0,-mobile,jspsych-0.3a-mobile,1,List1,2024-04-29,1,0,projectseed-iowa-production,0.0-0.0-2.0-0.29,eng,6e64b31c6348ac9d094febdaa4fdb26e97e83af1,True,adolescent,400.0,844,390,844,390,d0ed5bee-2678-4b0c-973e-46d7c8d5b605,d0ed5bee-2678-4b0c-973e-46d7c8d5b605,projectseed_production_april2024,1,,72101,118,html-button-response,"Mozilla/5.0 (iPhone; CPU iPhone OS 17_4_1 like Mac OS X) AppleWebKit/605.1.15 (KHTML, like Gecko) Version/17.4.1 Mobile/15E148 Safari/604.1",,1665,980,100.0,100.0,50.0,50.0,72430.0,B,400.0,72830.0,30.0,0.0,1.0,1900.0,100.0,
0,1234,-999999,0,0,IowaTask-v2.0,-mobile,jspsych-0.3a-mobile,1,List1,2024-04-29,1,0,projectseed-iowa-production,0.0-0.0-2.0-0.30,eng,6e64b31c6348ac9d094febdaa4fdb26e97e83af1,True,adolescent,229.0,844,390,844,390,d0ed5bee-2678-4b0c-973e-46d7c8d5b605,d0ed5bee-2678-4b0c-973e-46d7c8d5b605,projectseed_production_april2024,1,,73683,122,html-button-response,"Mozilla/5.0 (iPhone; CPU iPhone OS 17_4_1 like Mac OS X) AppleWebKit/605.1.15 (KHTML, like Gecko) Version/17.4.1 Mobile/15E148 Safari/604.1",,1665,980,100.0,100.0,50.0,50.0,74184.0,D,229.0,74413.0,31.0,0.0,3.0,1950.0,50.0,
0,1234,-999999,0,0,IowaTask-v2.0,-mobile,jspsych-0.3a-mobile,1,List1,2024-04-29,1,0,projectseed-iowa-production,0.0-0.0-2.0-0.31,eng,6e64b31c6348ac9d094febdaa4fdb26e97e83af1,True,adolescent,251.0,844,390,844,390,d0ed5bee-2678-4b0c-973e-46d7c8d5b605,d0ed5bee-2678-4b0c-973e-46d7c8d5b605,projectseed_production_april2024,1,,75287,126,html-button-response,"Mozilla/5.0 (iPhone; CPU iPhone OS 17_4_1 like Mac OS X) AppleWebKit/605.1.15 (KHTML, like Gecko) Version/17.4.1 Mobile/15E148 Safari/604.1",,1665,980,100.0,100.0,50.0,50.0,75765.0,B,251.0,76016.0,32.0,0.0,1.0,2050.0,100.0,
0,1234,-999999,0,0,IowaTask-v2.0,-mobile,jspsych-0.3a-mobile,1,List1,2024-04-29,1,0,projectseed-iowa-production,0.0-0.0-2.0-0.32,eng,6e64b31c6348ac9d094febdaa4fdb26e97e83af1,True,adolescent,433.0,844,390,844,390,d0ed5bee-2678-4b0c-973e-46d7c8d5b605,d0ed5bee-2678-4b0c-973e-46d7c8d5b605,projectseed_production_april2024,1,,77072,130,html-button-response,"Mozilla/5.0 (iPhone; CPU iPhone OS 17_4_1 like Mac OS X) AppleWebKit/605.1.15 (KHTML, like Gecko) Version/17.4.1 Mobile/15E148 Safari/604.1",,1665,980,100.0,-1150.0,50.0,50.0,77368.0,B,433.0,77801.0,33.0,-1250.0,1.0,900.0,-1150.0,
0,1234,-999999,0,0,IowaTask-v2.0,-mobile,jspsych-0.3a-mobile,1,List1,2024-04-29,1,0,projectseed-iowa-production,0.0-0.0-2.0-0.33,eng,6e64b31c6348ac9d094febdaa4fdb26e97e83af1,True,adolescent,195.0,844,390,844,390,d0ed5bee-2678-4b0c-973e-46d7c8d5b605,d0ed5bee-2678-4b0c-973e-46d7c8d5b605,projectseed_production_april2024,1,,79620,134,html-button-response,"Mozilla/5.0 (iPhone; CPU iPhone OS 17_4_1 like Mac OS X) AppleWebKit/605.1.15 (KHTML, like Gecko) Version/17.4.1 Mobile/15E148 Safari/604.1",,1665,980,100.0,100.0,50.0,50.0,80153.0,D,195.0,80348.0,34.0,0.0,3.0,950.0,50.0,
0,1234,-999999,0,0,IowaTask-v2.0,-mobile,jspsych-0.3a-mobile,1,List1,2024-04-29,1,0,projectseed-iowa-production,0.0-0.0-2.0-0.34,eng,6e64b31c6348ac9d094febdaa4fdb26e97e83af1,True,adolescent,486.0,844,390,844,390,d0ed5bee-2678-4b0c-973e-46d7c8d5b605,d0ed5bee-2678-4b0c-973e-46d7c8d5b605,projectseed_production_april2024,1,,81457,138,html-button-response,"Mozilla/5.0 (iPhone; CPU iPhone OS 17_4_1 like Mac OS X) AppleWebKit/605.1.15 (KHTML, like Gecko) Version/17.4.1 Mobile/15E148 Safari/604.1",,1665,980,100.0,100.0,50.0,50.0,81700.0,A,486.0,82186.0,35.0,0.0,0.0,1050.0,100.0,
0,1234,-999999,0,0,IowaTask-v2.0,-mobile,jspsych-0.3a-mobile,1,List1,2024-04-29,1,0,projectseed-iowa-production,0.0-0.0-2.0-0.35,eng,6e64b31c6348ac9d094febdaa4fdb26e97e83af1,True,adolescent,142.0,844,390,844,390,d0ed5bee-2678-4b0c-973e-46d7c8d5b605,d0ed5bee-2678-4b0c-973e-46d7c8d5b605,projectseed_production_april2024,1,,82952,142,html-button-response,"Mozilla/5.0 (iPhone; CPU iPhone OS 17_4_1 like Mac OS X) AppleWebKit/605.1.15 (KHTML, like Gecko) Version/17.4.1 Mobile/15E148 Safari/604.1",,1665,980,-150.0,100.0,50.0,50.0,83539.0,C,142.0,83681.0,36.0,0.0,2.0,1100.0,50.0,
0,1234,-999999,0,0,IowaTask-v2.0,-mobile,jspsych-0.3a-mobile,1,List1,2024-04-29,1,0,projectseed-iowa-production,0.0-0.0-2.0-0.36,eng,6e64b31c6348ac9d094febdaa4fdb26e97e83af1,True,adolescent,441.0,844,390,844,390,d0ed5bee-2678-4b0c-973e-46d7c8d5b605,d0ed5bee-2678-4b0c-973e-46d7c8d5b605,projectseed_production_april2024,1,,84744,146,html-button-response,"Mozilla/5.0 (iPhone; CPU iPhone OS 17_4_1 like Mac OS X) AppleWebKit/605.1.15 (KHTML, like Gecko) Version/17.4.1 Mobile/15E148 Safari/604.1",,1665,980,-150.0,100.0,25.0,50.0,85032.0,A,441.0,85473.0,37.0,-250.0,0.0,950.0,-150.0,
0,1234,-999999,0,0,IowaTask-v2.0,-mobile,jspsych-0.3a-mobile,1,List1,2024-04-29,1,0,projectseed-iowa-production,0.0-0.0-2.0-0.37,eng,6e64b31c6348ac9d094febdaa4fdb26e97e83af1,True,adolescent,77.0,844,390,844,390,d0ed5bee-2678-4b0c-973e-46d7c8d5b605,d0ed5bee-2678-4b0c-973e-46d7c8d5b605,projectseed_production_april2024,1,,87172,150,html-button-response,"Mozilla/5.0 (iPhone; CPU iPhone OS 17_4_1 like Mac OS X) AppleWebKit/605.1.15 (KHTML, like Gecko) Version/17.4.1 Mobile/15E148 Safari/604.1",,1665,980,100.0,100.0,25.0,50.0,87823.0,B,77.0,87900.0,38.0,0.0,1.0,1050.0,100.0,
0,1234,-999999,0,0,IowaTask-v2.0,-mobile,jspsych-0.3a-mobile,1,List1,2024-04-29,1,0,projectseed-iowa-production,0.0-0.0-2.0-0.38,eng,6e64b31c6348ac9d094febdaa4fdb26e97e83af1,True,adolescent,35.0,844,390,844,390,d0ed5bee-2678-4b0c-973e-46d7c8d5b605,d0ed5bee-2678-4b0c-973e-46d7c8d5b605,projectseed_production_april2024,1,,88553,154,html-button-response,"Mozilla/5.0 (iPhone; CPU iPhone OS 17_4_1 like Mac OS X) AppleWebKit/605.1.15 (KHTML, like Gecko) Version/17.4.1 Mobile/15E148 Safari/604.1",,1665,980,100.0,100.0,25.0,50.0,89246.0,A,35.0,89281.0,39.0,0.0,0.0,1150.0,100.0,
0,1234,-999999,0,0,IowaTask-v2.0,-mobile,jspsych-0.3a-mobile,1,List1,2024-04-29,1,0,projectseed-iowa-production,0.0-0.0-2.0-0.39,eng,6e64b31c6348ac9d094febdaa4fdb26e97e83af1,True,adolescent,262.0,844,390,844,390,d0ed5bee-2678-4b0c-973e-46d7c8d5b605,d0ed5bee-2678-4b0c-973e-46d7c8d5b605,projectseed_production_april2024,1,,90165,158,html-button-response,"Mozilla/5.0 (iPhone; CPU iPhone OS 17_4_1 like Mac OS X) AppleWebKit/605.1.15 (KHTML, like Gecko) Version/17.4.1 Mobile/15E148 Safari/604.1",,1665,980,100.0,100.0,25.0,50.0,90632.0,B,262.0,90894.0,40.0,0.0,1.0,1250.0,100.0,
0,1234,-999999,0,0,IowaTask-v2.0,-mobile,jspsych-0.3a-mobile,1,List1,2024-04-29,1,0,projectseed-iowa-production,0.0-0.0-2.0-0.40,eng,6e64b31c6348ac9d094febdaa4fdb26e97e83af1,True,adolescent,34.0,844,390,844,390,d0ed5bee-2678-4b0c-973e-46d7c8d5b605,d0ed5bee-2678-4b0c-973e-46d7c8d5b605,projectseed_production_april2024,1,,91545,162,html-button-response,"Mozilla/5.0 (iPhone; CPU iPhone OS 17_4_1 like Mac OS X) AppleWebKit/605.1.15 (KHTML, like Gecko) Version/17.4.1 Mobile/15E148 Safari/604.1",,1665,980,100.0,100.0,25.0,50.0,92240.0,A,34.0,92274.0,41.0,0.0,0.0,1350.0,100.0,
0,1234,-999999,0,0,IowaTask-v2.0,-mobile,jspsych-0.3a-mobile,1,List1,2024-04-29,1,0,projectseed-iowa-production,0.0-0.0-2.0-0.41,eng,6e64b31c6348ac9d094febdaa4fdb26e97e83af1,True,adolescent,69.0,844,390,844,390,d0ed5bee-2678-4b0c-973e-46d7c8d5b605,d0ed5bee-2678-4b0c-973e-46d7c8d5b605,projectseed_production_april2024,1,,92959,166,html-button-response,"Mozilla/5.0 (iPhone; CPU iPhone OS 17_4_1 like Mac OS X) AppleWebKit/605.1.15 (KHTML, like Gecko) Version/17.4.1 Mobile/15E148 Safari/604.1",,1665,980,-50.0,100.0,25.0,50.0,93619.0,B,69.0,93688.0,42.0,0.0,1.0,1450.0,100.0,
0,1234,-999999,0,0,IowaTask-v2.0,-mobile,jspsych-0.3a-mobile,1,List1,2024-04-29,1,0,projectseed-iowa-production,0.0-0.0-2.0-0.42,eng,6e64b31c6348ac9d094febdaa4fdb26e97e83af1,True,adolescent,185.0,844,390,844,390,d0ed5bee-2678-4b0c-973e-46d7c8d5b605,d0ed5bee-2678-4b0c-973e-46d7c8d5b605,projectseed_production_april2024,1,,94496,170,html-button-response,"Mozilla/5.0 (iPhone; CPU iPhone OS 17_4_1 like Mac OS X) AppleWebKit/605.1.15 (KHTML, like Gecko) Version/17.4.1 Mobile/15E148 Safari/604.1",,1665,980,-50.0,100.0,25.0,50.0,95040.00000000001,A,185.0,95225.00000000001,43.0,-150.0,0.0,1400.0,-50.0,
0,1234,-999999,0,0,IowaTask-v2.0,-mobile,jspsych-0.3a-mobile,1,List1,2024-04-29,1,0,projectseed-iowa-production,0.0-0.0-2.0-0.43,eng,6e64b31c6348ac9d094febdaa4fdb26e97e83af1,True,adolescent,234.0,844,390,844,390,d0ed5bee-2678-4b0c-973e-46d7c8d5b605,d0ed5bee-2678-4b0c-973e-46d7c8d5b605,projectseed_production_april2024,1,,97085,174,html-button-response,"Mozilla/5.0 (iPhone; CPU iPhone OS 17_4_1 like Mac OS X) AppleWebKit/605.1.15 (KHTML, like Gecko) Version/17.4.1 Mobile/15E148 Safari/604.1",,1665,980,-200.0,100.0,25.0,50.0,97579.0,B,234.0,97813.0,44.0,0.0,1.0,1500.0,100.0,
0,1234,-999999,0,0,IowaTask-v2.0,-mobile,jspsych-0.3a-mobile,1,List1,2024-04-29,1,0,projectseed-iowa-production,0.0-0.0-2.0-0.44,eng,6e64b31c6348ac9d094febdaa4fdb26e97e83af1,True,adolescent,34.0,844,390,844,390,d0ed5bee-2678-4b0c-973e-46d7c8d5b605,d0ed5bee-2678-4b0c-973e-46d7c8d5b605,projectseed_production_april2024,1,,98463,178,html-button-response,"Mozilla/5.0 (iPhone; CPU iPhone OS 17_4_1 like Mac OS X) AppleWebKit/605.1.15 (KHTML, like Gecko) Version/17.4.1 Mobile/15E148 Safari/604.1",,1665,980,-200.0,-1150.0,25.0,50.0,99157.0,B,34.0,99191.0,45.0,-1250.0,1.0,350.0,-1150.0,
0,1234,-999999,0,0,IowaTask-v2.0,-mobile,jspsych-0.3a-mobile,1,List1,2024-04-29,1,0,projectseed-iowa-production,0.0-0.0-2.0-0.45,eng,6e64b31c6348ac9d094febdaa4fdb26e97e83af1,True,adolescent,185.0,844,390,844,390,d0ed5bee-2678-4b0c-973e-46d7c8d5b605,d0ed5bee-2678-4b0c-973e-46d7c8d5b605,projectseed_production_april2024,1,,101000,182,html-button-response,"Mozilla/5.0 (iPhone; CPU iPhone OS 17_4_1 like Mac OS X) AppleWebKit/605.1.15 (KHTML, like Gecko) Version/17.4.1 Mobile/15E148 Safari/604.1",,1665,980,-200.0,100.0,25.0,50.0,101544.0,D,185.0,101729.0,46.0,0.0,3.0,400.0,50.0,
0,1234,-999999,0,0,IowaTask-v2.0,-mobile,jspsych-0.3a-mobile,1,List1,2024-04-29,1,0,projectseed-iowa-production,0.0-0.0-2.0-0.46,eng,6e64b31c6348ac9d094febdaa4fdb26e97e83af1,True,adolescent,33.0,844,390,844,390,d0ed5bee-2678-4b0c-973e-46d7c8d5b605,d0ed5bee-2678-4b0c-973e-46d7c8d5b605,projectseed_production_april2024,1,,102385,186,html-button-response,"Mozilla/5.0 (iPhone; CPU iPhone OS 17_4_1 like Mac OS X) AppleWebKit/605.1.15 (KHTML, like Gecko) Version/17.4.1 Mobile/15E148 Safari/604.1",,1665,980,-200.0,100.0,25.0,50.0,103080.0,C,33.0,103113.0,47.0,-25.0,2.0,425.0,25.0,
0,1234,-999999,0,0,IowaTask-v2.0,-mobile,jspsych-0.3a-mobile,1,List1,2024-04-29,1,0,projectseed-iowa-production,0.0-0.0-2.0-0.47,eng,6e64b31c6348ac9d094febdaa4fdb26e97e83af1,True,adolescent,98.0,844,390,844,390,d0ed5bee-2678-4b0c-973e-46d7c8d5b605,d0ed5bee-2678-4b0c-973e-46d7c8d5b605,projectseed_production_april2024,1,,104819,190,html-button-response,"Mozilla/5.0 (iPhone; CPU iPhone OS 17_4_1 like Mac OS X) AppleWebKit/605.1.15 (KHTML, like Gecko) Version/17.4.1 Mobile/15E148 Safari/604.1",,1665,980,-200.0,100.0,25.0,50.0,105449.0,B,98.0,105547.0,48.0,0.0,1.0,525.0,100.0,
0,1234,-999999,0,0,IowaTask-v2.0,-mobile,jspsych-0.3a-mobile,1,List1,2024-04-29,1,0,projectseed-iowa-production,0.0-0.0-2.0-0.48,eng,6e64b31c6348ac9d094febdaa4fdb26e97e83af1,True,adolescent,556.0,844,390,844,390,d0ed5bee-2678-4b0c-973e-46d7c8d5b605,d0ed5bee-2678-4b0c-973e-46d7c8d5b605,projectseed_production_april2024,1,,106727,194,html-button-response,"Mozilla/5.0 (iPhone; CPU iPhone OS 17_4_1 like Mac OS X) AppleWebKit/605.1.15 (KHTML, like Gecko) Version/17.4.1 Mobile/15E148 Safari/604.1",,1665,980,-200.0,100.0,25.0,50.0,106899.0,B,556.0,107455.0,49.0,0.0,1.0,625.0,100.0,
0,1234,-999999,0,0,IowaTask-v2.0,-mobile,jspsych-0.3a-mobile,1,List1,2024-04-29,1,0,projectseed-iowa-production,0.0-0.0-2.0-0.49,eng,6e64b31c6348ac9d094febdaa4fdb26e97e83af1,True,adolescent,398.0,844,390,844,390,d0ed5bee-2678-4b0c-973e-46d7c8d5b605,d0ed5bee-2678-4b0c-973e-46d7c8d5b605,projectseed_production_april2024,1,,108478,198,html-button-response,"Mozilla/5.0 (iPhone; CPU iPhone OS 17_4_1 like Mac OS X) AppleWebKit/605.1.15 (KHTML, like Gecko) Version/17.4.1 Mobile/15E148 Safari/604.1",,1665,980,-200.0,100.0,25.0,50.0,108808.0,B,398.0,109206.0,50.0,0.0,1.0,725.0,100.0,
0,1234,-999999,0,0,IowaTask-v2.0,-mobile,jspsych-0.3a-mobile,1,List1,2024-04-29,1,0,projectseed-iowa-production,0.0-0.0-2.0-0.50,eng,6e64b31c6348ac9d094febdaa4fdb26e97e83af1,True,adolescent,205.0,844,390,844,390,d0ed5bee-2678-4b0c-973e-46d7c8d5b605,d0ed5bee-2678-4b0c-973e-46d7c8d5b605,projectseed_production_april2024,1,,110042,202,html-button-response,"Mozilla/5.0 (iPhone; CPU iPhone OS 17_4_1 like Mac OS X) AppleWebKit/605.1.15 (KHTML, like Gecko) Version/17.4.1 Mobile/15E148 Safari/604.1",,1665,980,-200.0,100.0,25.0,50.0,110565.0,B,205.0,110770.0,51.0,0.0,1.0,825.0,100.0,
0,1234,-999999,0,0,IowaTask-v2.0,-mobile,jspsych-0.3a-mobile,1,List1,2024-04-29,1,0,projectseed-iowa-production,0.0-0.0-2.0-0.51,eng,6e64b31c6348ac9d094febdaa4fdb26e97e83af1,True,adolescent,368.0,844,390,844,390,d0ed5bee-2678-4b0c-973e-46d7c8d5b605,d0ed5bee-2678-4b0c-973e-46d7c8d5b605,projectseed_production_april2024,1,,111763,206,html-button-response,"Mozilla/5.0 (iPhone; CPU iPhone OS 17_4_1 like Mac OS X) AppleWebKit/605.1.15 (KHTML, like Gecko) Version/17.4.1 Mobile/15E148 Safari/604.1",,1665,980,-200.0,100.0,25.0,50.0,112123.0,B,368.0,112491.0,52.0,0.0,1.0,925.0,100.0,
0,1234,-999999,0,0,IowaTask-v2.0,-mobile,jspsych-0.3a-mobile,1,List1,2024-04-29,1,0,projectseed-iowa-production,0.0-0.0-2.0-0.52,eng,6e64b31c6348ac9d094febdaa4fdb26e97e83af1,True,adolescent,462.0,844,390,844,390,d0ed5bee-2678-4b0c-973e-46d7c8d5b605,d0ed5bee-2678-4b0c-973e-46d7c8d5b605,projectseed_production_april2024,1,,113579,210,html-button-response,"Mozilla/5.0 (iPhone; CPU iPhone OS 17_4_1 like Mac OS X) AppleWebKit/605.1.15 (KHTML, like Gecko) Version/17.4.1 Mobile/15E148 Safari/604.1",,1665,980,-200.0,100.0,25.0,50.0,113845.0,B,462.0,114307.0,53.0,0.0,1.0,1025.0,100.0,
0,1234,-999999,0,0,IowaTask-v2.0,-mobile,jspsych-0.3a-mobile,1,List1,2024-04-29,1,0,projectseed-iowa-production,0.0-0.0-2.0-0.53,eng,6e64b31c6348ac9d094febdaa4fdb26e97e83af1,True,adolescent,57.0,844,390,844,390,d0ed5bee-2678-4b0c-973e-46d7c8d5b605,d0ed5bee-2678-4b0c-973e-46d7c8d5b605,projectseed_production_april2024,1,,114978,214,html-button-response,"Mozilla/5.0 (iPhone; CPU iPhone OS 17_4_1 like Mac OS X) AppleWebKit/605.1.15 (KHTML, like Gecko) Version/17.4.1 Mobile/15E148 Safari/604.1",,1665,980,-200.0,100.0,25.0,50.0,115649.0,B,57.0,115706.0,54.0,0.0,1.0,1125.0,100.0,
0,1234,-999999,0,0,IowaTask-v2.0,-mobile,jspsych-0.3a-mobile,1,List1,2024-04-29,1,0,projectseed-iowa-production,0.0-0.0-2.0-0.54,eng,6e64b31c6348ac9d094febdaa4fdb26e97e83af1,True,adolescent,166.0,844,390,844,390,d0ed5bee-2678-4b0c-973e-46d7c8d5b605,d0ed5bee-2678-4b0c-973e-46d7c8d5b605,projectseed_production_april2024,1,,116496,218,html-button-response,"Mozilla/5.0 (iPhone; CPU iPhone OS 17_4_1 like Mac OS X) AppleWebKit/605.1.15 (KHTML, like Gecko) Version/17.4.1 Mobile/15E148 Safari/604.1",,1665,980,-200.0,100.0,25.0,50.0,117057.0,B,166.0,117223.0,55.0,0.0,1.0,1225.0,100.0,
0,1234,-999999,0,0,IowaTask-v2.0,-mobile,jspsych-0.3a-mobile,1,List1,2024-04-29,1,0,projectseed-iowa-production,0.0-0.0-2.0-0.55,eng,6e64b31c6348ac9d094febdaa4fdb26e97e83af1,True,adolescent,321.0,844,390,844,390,d0ed5bee-2678-4b0c-973e-46d7c8d5b605,d0ed5bee-2678-4b0c-973e-46d7c8d5b605,projectseed_production_april2024,1,,118169,222,html-button-response,"Mozilla/5.0 (iPhone; CPU iPhone OS 17_4_1 like Mac OS X) AppleWebKit/605.1.15 (KHTML, like Gecko) Version/17.4.1 Mobile/15E148 Safari/604.1",,1665,980,-200.0,100.0,25.0,50.0,118576.0,B,321.0,118897.0,56.0,0.0,1.0,1325.0,100.0,
0,1234,-999999,0,0,IowaTask-v2.0,-mobile,jspsych-0.3a-mobile,1,List1,2024-04-29,1,0,projectseed-iowa-production,0.0-0.0-2.0-0.56,eng,6e64b31c6348ac9d094febdaa4fdb26e97e83af1,True,adolescent,35.0,844,390,844,390,d0ed5bee-2678-4b0c-973e-46d7c8d5b605,d0ed5bee-2678-4b0c-973e-46d7c8d5b605,projectseed_production_april2024,1,,119555,226,html-button-response,"Mozilla/5.0 (iPhone; CPU iPhone OS 17_4_1 like Mac OS X) AppleWebKit/605.1.15 (KHTML, like Gecko) Version/17.4.1 Mobile/15E148 Safari/604.1",,1665,980,-200.0,100.0,25.0,50.0,120248.0,B,35.0,120283.0,57.0,0.0,1.0,1425.0,100.0,
0,1234,-999999,0,0,IowaTask-v2.0,-mobile,jspsych-0.3a-mobile,1,List1,2024-04-29,1,0,projectseed-iowa-production,0.0-0.0-2.0-0.57,eng,6e64b31c6348ac9d094febdaa4fdb26e97e83af1,True,adolescent,126.0,844,390,844,390,d0ed5bee-2678-4b0c-973e-46d7c8d5b605,d0ed5bee-2678-4b0c-973e-46d7c8d5b605,projectseed_production_april2024,1,,121032,230,html-button-response,"Mozilla/5.0 (iPhone; CPU iPhone OS 17_4_1 like Mac OS X) AppleWebKit/605.1.15 (KHTML, like Gecko) Version/17.4.1 Mobile/15E148 Safari/604.1",,1665,980,-200.0,100.0,25.0,50.0,121633.0,B,126.0,121759.0,58.0,0.0,1.0,1525.0,100.0,
0,1234,-999999,0,0,IowaTask-v2.0,-mobile,jspsych-0.3a-mobile,1,List1,2024-04-29,1,0,projectseed-iowa-production,0.0-0.0-2.0-0.58,eng,6e64b31c6348ac9d094febdaa4fdb26e97e83af1,True,adolescent,508.0,844,390,844,390,d0ed5bee-2678-4b0c-973e-46d7c8d5b605,d0ed5bee-2678-4b0c-973e-46d7c8d5b605,projectseed_production_april2024,1,,122889,234,html-button-response,"Mozilla/5.0 (iPhone; CPU iPhone OS 17_4_1 like Mac OS X) AppleWebKit/605.1.15 (KHTML, like Gecko) Version/17.4.1 Mobile/15E148 Safari/604.1",,1665,980,-200.0,-1150.0,25.0,50.0,123109.0,B,508.0,123617.0,59.0,-1250.0,1.0,375.0,-1150.0,
0,1234,-999999,0,0,IowaTask-v2.0,-mobile,jspsych-0.3a-mobile,1,List1,2024-04-29,1,0,projectseed-iowa-production,0.0-0.0-2.0-0.59,eng,6e64b31c6348ac9d094febdaa4fdb26e97e83af1,True,adolescent,59.0,844,390,844,390,d0ed5bee-2678-4b0c-973e-46d7c8d5b605,d0ed5bee-2678-4b0c-973e-46d7c8d5b605,projectseed_production_april2024,1,,125306,238,html-button-response,"Mozilla/5.0 (iPhone; CPU iPhone OS 17_4_1 like Mac OS X) AppleWebKit/605.1.15 (KHTML, like Gecko) Version/17.4.1 Mobile/15E148 Safari/604.1",,1665,980,-200.0,100.0,25.0,50.0,125974.0,B,59.0,126033.0,60.0,0.0,1.0,475.0,100.0,
0,1234,-999999,0,0,IowaTask-v2.0,-mobile,jspsych-0.3a-mobile,1,List1,2024-04-29,1,0,projectseed-iowa-production,0.0-0.0-2.0-0.60,eng,6e64b31c6348ac9d094febdaa4fdb26e97e83af1,True,adolescent,302.0,844,390,844,390,d0ed5bee-2678-4b0c-973e-46d7c8d5b605,d0ed5bee-2678-4b0c-973e-46d7c8d5b605,projectseed_production_april2024,1,,126960,242,html-button-response,"Mozilla/5.0 (iPhone; CPU iPhone OS 17_4_1 like Mac OS X) AppleWebKit/605.1.15 (KHTML, like Gecko) Version/17.4.1 Mobile/15E148 Safari/604.1",,1665,980,-200.0,100.0,25.0,50.0,127385.0,B,302.0,127687.0,61.0,0.0,1.0,575.0,100.0,
0,1234,-999999,0,0,IowaTask-v2.0,-mobile,jspsych-0.3a-mobile,1,List1,2024-04-29,1,0,projectseed-iowa-production,0.0-0.0-2.0-0.61,eng,6e64b31c6348ac9d094febdaa4fdb26e97e83af1,True,adolescent,66.0,844,390,844,390,d0ed5bee-2678-4b0c-973e-46d7c8d5b605,d0ed5bee-2678-4b0c-973e-46d7c8d5b605,projectseed_production_april2024,1,,128370,246,html-button-response,"Mozilla/5.0 (iPhone; CPU iPhone OS 17_4_1 like Mac OS X) AppleWebKit/605.1.15 (KHTML, like Gecko) Version/17.4.1 Mobile/15E148 Safari/604.1",,1665,980,-200.0,100.0,25.0,50.0,129032.00000000001,B,66.0,129098.00000000001,62.0,0.0,1.0,675.0,100.0,
0,1234,-999999,0,0,IowaTask-v2.0,-mobile,jspsych-0.3a-mobile,1,List1,2024-04-29,1,0,projectseed-iowa-production,0.0-0.0-2.0-0.62,eng,6e64b31c6348ac9d094febdaa4fdb26e97e83af1,True,adolescent,374.0,844,390,844,390,d0ed5bee-2678-4b0c-973e-46d7c8d5b605,d0ed5bee-2678-4b0c-973e-46d7c8d5b605,projectseed_production_april2024,1,,130094,250,html-button-response,"Mozilla/5.0 (iPhone; CPU iPhone OS 17_4_1 like Mac OS X) AppleWebKit/605.1.15 (KHTML, like Gecko) Version/17.4.1 Mobile/15E148 Safari/604.1",,1665,980,-200.0,100.0,25.0,50.0,130448.0,B,374.0,130822.0,63.0,0.0,1.0,775.0,100.0,
0,1234,-999999,0,0,IowaTask-v2.0,-mobile,jspsych-0.3a-mobile,1,List1,2024-04-29,1,0,projectseed-iowa-production,0.0-0.0-2.0-0.63,eng,6e64b31c6348ac9d094febdaa4fdb26e97e83af1,True,adolescent,109.0,844,390,844,390,d0ed5bee-2678-4b0c-973e-46d7c8d5b605,d0ed5bee-2678-4b0c-973e-46d7c8d5b605,projectseed_production_april2024,1,,131556,254,html-button-response,"Mozilla/5.0 (iPhone; CPU iPhone OS 17_4_1 like Mac OS X) AppleWebKit/605.1.15 (KHTML, like Gecko) Version/17.4.1 Mobile/15E148 Safari/604.1",,1665,980,-200.0,100.0,25.0,50.0,132174.00000000003,B,109.0,132283.00000000003,64.0,0.0,1.0,875.0,100.0,
0,1234,-999999,0,0,IowaTask-v2.0,-mobile,jspsych-0.3a-mobile,1,List1,2024-04-29,1,0,projectseed-iowa-production,0.0-0.0-2.0-0.64,eng,6e64b31c6348ac9d094febdaa4fdb26e97e83af1,True,adolescent,789.0,844,390,844,390,d0ed5bee-2678-4b0c-973e-46d7c8d5b605,d0ed5bee-2678-4b0c-973e-46d7c8d5b605,projectseed_production_april2024,1,,133696,258,html-button-response,"Mozilla/5.0 (iPhone; CPU iPhone OS 17_4_1 like Mac OS X) AppleWebKit/605.1.15 (KHTML, like Gecko) Version/17.4.1 Mobile/15E148 Safari/604.1",,1665,980,-200.0,100.0,25.0,50.0,133635.0,B,789.0,134424.0,65.0,0.0,1.0,975.0,100.0,
0,1234,-999999,0,0,IowaTask-v2.0,-mobile,jspsych-0.3a-mobile,1,List1,2024-04-29,1,0,projectseed-iowa-production,0.0-0.0-2.0-0.65,eng,6e64b31c6348ac9d094febdaa4fdb26e97e83af1,True,adolescent,33.0,844,390,844,390,d0ed5bee-2678-4b0c-973e-46d7c8d5b605,d0ed5bee-2678-4b0c-973e-46d7c8d5b605,projectseed_production_april2024,1,,135077,262,html-button-response,"Mozilla/5.0 (iPhone; CPU iPhone OS 17_4_1 like Mac OS X) AppleWebKit/605.1.15 (KHTML, like Gecko) Version/17.4.1 Mobile/15E148 Safari/604.1",,1665,980,-200.0,100.0,25.0,50.0,135771.0,B,33.0,135804.0,66.0,0.0,1.0,1075.0,100.0,
0,1234,-999999,0,0,IowaTask-v2.0,-mobile,jspsych-0.3a-mobile,1,List1,2024-04-29,1,0,projectseed-iowa-production,0.0-0.0-2.0-0.66,eng,6e64b31c6348ac9d094febdaa4fdb26e97e83af1,True,adolescent,165.0,844,390,844,390,d0ed5bee-2678-4b0c-973e-46d7c8d5b605,d0ed5bee-2678-4b0c-973e-46d7c8d5b605,projectseed_production_april2024,1,,136595,266,html-button-response,"Mozilla/5.0 (iPhone; CPU iPhone OS 17_4_1 like Mac OS X) AppleWebKit/605.1.15 (KHTML, like Gecko) Version/17.4.1 Mobile/15E148 Safari/604.1",,1665,980,-200.0,100.0,25.0,50.0,137157.0,B,165.0,137322.0,67.0,0.0,1.0,1175.0,100.0,
0,1234,-999999,0,0,IowaTask-v2.0,-mobile,jspsych-0.3a-mobile,1,List1,2024-04-29,1,0,projectseed-iowa-production,0.0-0.0-2.0-0.67,eng,6e64b31c6348ac9d094febdaa4fdb26e97e83af1,True,adolescent,57.0,844,390,844,390,d0ed5bee-2678-4b0c-973e-46d7c8d5b605,d0ed5bee-2678-4b0c-973e-46d7c8d5b605,projectseed_production_april2024,1,,137994,270,html-button-response,"Mozilla/5.0 (iPhone; CPU iPhone OS 17_4_1 like Mac OS X) AppleWebKit/605.1.15 (KHTML, like Gecko) Version/17.4.1 Mobile/15E148 Safari/604.1",,1665,980,-200.0,100.0,25.0,50.0,138664.0,B,57.0,138721.0,68.0,0.0,1.0,1275.0,100.0,
0,1234,-999999,0,0,IowaTask-v2.0,-mobile,jspsych-0.3a-mobile,1,List1,2024-04-29,1,0,projectseed-iowa-production,0.0-0.0-2.0-0.68,eng,6e64b31c6348ac9d094febdaa4fdb26e97e83af1,True,adolescent,212.0,844,390,844,390,d0ed5bee-2678-4b0c-973e-46d7c8d5b605,d0ed5bee-2678-4b0c-973e-46d7c8d5b605,projectseed_production_april2024,1,,139563,274,html-button-response,"Mozilla/5.0 (iPhone; CPU iPhone OS 17_4_1 like Mac OS X) AppleWebKit/605.1.15 (KHTML, like Gecko) Version/17.4.1 Mobile/15E148 Safari/604.1",,1665,980,-200.0,100.0,25.0,50.0,140078.0,B,212.0,140290.0,69.0,0.0,1.0,1375.0,100.0,
0,1234,-999999,0,0,IowaTask-v2.0,-mobile,jspsych-0.3a-mobile,1,List1,2024-04-29,1,0,projectseed-iowa-production,0.0-0.0-2.0-0.69,eng,6e64b31c6348ac9d094febdaa4fdb26e97e83af1,True,adolescent,40.0,844,390,844,390,d0ed5bee-2678-4b0c-973e-46d7c8d5b605,d0ed5bee-2678-4b0c-973e-46d7c8d5b605,projectseed_production_april2024,1,,140951,278,html-button-response,"Mozilla/5.0 (iPhone; CPU iPhone OS 17_4_1 like Mac OS X) AppleWebKit/605.1.15 (KHTML, like Gecko) Version/17.4.1 Mobile/15E148 Safari/604.1",,1665,980,-200.0,100.0,25.0,50.0,141638.0,B,40.0,141678.0,70.0,0.0,1.0,1475.0,100.0,
0,1234,-999999,0,0,IowaTask-v2.0,-mobile,jspsych-0.3a-mobile,1,List1,2024-04-29,1,0,projectseed-iowa-production,0.0-0.0-2.0-0.70,eng,6e64b31c6348ac9d094febdaa4fdb26e97e83af1,True,adolescent,268.0,844,390,844,390,d0ed5bee-2678-4b0c-973e-46d7c8d5b605,d0ed5bee-2678-4b0c-973e-46d7c8d5b605,projectseed_production_april2024,1,,142571,282,html-button-response,"Mozilla/5.0 (iPhone; CPU iPhone OS 17_4_1 like Mac OS X) AppleWebKit/605.1.15 (KHTML, like Gecko) Version/17.4.1 Mobile/15E148 Safari/604.1",,1665,980,-200.0,100.0,25.0,50.0,143030.0,B,268.0,143298.0,71.0,0.0,1.0,1575.0,100.0,
0,1234,-999999,0,0,IowaTask-v2.0,-mobile,jspsych-0.3a-mobile,1,List1,2024-04-29,1,0,projectseed-iowa-production,0.0-0.0-2.0-0.71,eng,6e64b31c6348ac9d094febdaa4fdb26e97e83af1,True,adolescent,400.0,844,390,844,390,d0ed5bee-2678-4b0c-973e-46d7c8d5b605,d0ed5bee-2678-4b0c-973e-46d7c8d5b605,projectseed_production_april2024,1,,144324,286,html-button-response,"Mozilla/5.0 (iPhone; CPU iPhone OS 17_4_1 like Mac OS X) AppleWebKit/605.1.15 (KHTML, like Gecko) Version/17.4.1 Mobile/15E148 Safari/604.1",,1665,980,-200.0,100.0,25.0,50.0,144651.00000000003,B,400.0,145051.00000000003,72.0,0.0,1.0,1675.0,100.0,
0,1234,-999999,0,0,IowaTask-v2.0,-mobile,jspsych-0.3a-mobile,1,List1,2024-04-29,1,0,projectseed-iowa-production,0.0-0.0-2.0-0.72,eng,6e64b31c6348ac9d094febdaa4fdb26e97e83af1,True,adolescent,666.0,844,390,844,390,d0ed5bee-2678-4b0c-973e-46d7c8d5b605,d0ed5bee-2678-4b0c-973e-46d7c8d5b605,projectseed_production_april2024,1,,146340,290,html-button-response,"Mozilla/5.0 (iPhone; CPU iPhone OS 17_4_1 like Mac OS X) AppleWebKit/605.1.15 (KHTML, like Gecko) Version/17.4.1 Mobile/15E148 Safari/604.1",,1665,980,-200.0,100.0,25.0,50.0,146401.0,B,666.0,147067.0,73.0,0.0,1.0,1775.0,100.0,
0,1234,-999999,0,0,IowaTask-v2.0,-mobile,jspsych-0.3a-mobile,1,List1,2024-04-29,1,0,projectseed-iowa-production,0.0-0.0-2.0-0.73,eng,6e64b31c6348ac9d094febdaa4fdb26e97e83af1,True,adolescent,849.0,844,390,844,390,d0ed5bee-2678-4b0c-973e-46d7c8d5b605,d0ed5bee-2678-4b0c-973e-46d7c8d5b605,projectseed_production_april2024,1,,148541,294,html-button-response,"Mozilla/5.0 (iPhone; CPU iPhone OS 17_4_1 like Mac OS X) AppleWebKit/605.1.15 (KHTML, like Gecko) Version/17.4.1 Mobile/15E148 Safari/604.1",,1665,980,-200.0,100.0,25.0,50.0,148419.0,B,849.0,149268.0,74.0,0.0,1.0,1875.0,100.0,
0,1234,-999999,0,0,IowaTask-v2.0,-mobile,jspsych-0.3a-mobile,1,List1,2024-04-29,1,0,projectseed-iowa-production,0.0-0.0-2.0-0.74,eng,6e64b31c6348ac9d094febdaa4fdb26e97e83af1,True,adolescent,400.0,844,390,844,390,d0ed5bee-2678-4b0c-973e-46d7c8d5b605,d0ed5bee-2678-4b0c-973e-46d7c8d5b605,projectseed_production_april2024,1,,150293,298,html-button-response,"Mozilla/5.0 (iPhone; CPU iPhone OS 17_4_1 like Mac OS X) AppleWebKit/605.1.15 (KHTML, like Gecko) Version/17.4.1 Mobile/15E148 Safari/604.1",,1665,980,-200.0,-1150.0,25.0,50.0,150620.0,B,400.0,151020.0,75.0,-1250.0,1.0,725.0,-1150.0,
0,1234,-999999,0,0,IowaTask-v2.0,-mobile,jspsych-0.3a-mobile,1,List1,2024-04-29,1,0,projectseed-iowa-production,0.0-0.0-2.0-0.75,eng,6e64b31c6348ac9d094febdaa4fdb26e97e83af1,True,adolescent,34.0,844,390,844,390,d0ed5bee-2678-4b0c-973e-46d7c8d5b605,d0ed5bee-2678-4b0c-973e-46d7c8d5b605,projectseed_production_april2024,1,,152672,302,html-button-response,"Mozilla/5.0 (iPhone; CPU iPhone OS 17_4_1 like Mac OS X) AppleWebKit/605.1.15 (KHTML, like Gecko) Version/17.4.1 Mobile/15E148 Safari/604.1",,1665,980,-200.0,100.0,25.0,50.0,153365.0,A,34.0,153399.0,76.0,-300.0,0.0,525.0,-200.0,
0,1234,-999999,0,0,IowaTask-v2.0,-mobile,jspsych-0.3a-mobile,1,List1,2024-04-29,1,0,projectseed-iowa-production,0.0-0.0-2.0-0.76,eng,6e64b31c6348ac9d094febdaa4fdb26e97e83af1,True,adolescent,189.0,844,390,844,390,d0ed5bee-2678-4b0c-973e-46d7c8d5b605,d0ed5bee-2678-4b0c-973e-46d7c8d5b605,projectseed_production_april2024,1,,155208,306,html-button-response,"Mozilla/5.0 (iPhone; CPU iPhone OS 17_4_1 like Mac OS X) AppleWebKit/605.1.15 (KHTML, like Gecko) Version/17.4.1 Mobile/15E148 Safari/604.1",,1665,980,100.0,100.0,25.0,50.0,155746.0,B,189.0,155935.0,77.0,0.0,1.0,625.0,100.0,
0,1234,-999999,0,0,IowaTask-v2.0,-mobile,jspsych-0.3a-mobile,1,List1,2024-04-29,1,0,projectseed-iowa-production,0.0-0.0-2.0-0.77,eng,6e64b31c6348ac9d094febdaa4fdb26e97e83af1,True,adolescent,252.0,844,390,844,390,d0ed5bee-2678-4b0c-973e-46d7c8d5b605,d0ed5bee-2678-4b0c-973e-46d7c8d5b605,projectseed_production_april2024,1,,156813,310,html-button-response,"Mozilla/5.0 (iPhone; CPU iPhone OS 17_4_1 like Mac OS X) AppleWebKit/605.1.15 (KHTML, like Gecko) Version/17.4.1 Mobile/15E148 Safari/604.1",,1665,980,100.0,100.0,25.0,50.0,157287.00000000003,B,252.0,157539.00000000003,78.0,0.0,1.0,725.0,100.0,
0,1234,-999999,0,0,IowaTask-v2.0,-mobile,jspsych-0.3a-mobile,1,List1,2024-04-29,1,0,projectseed-iowa-production,0.0-0.0-2.0-0.78,eng,6e64b31c6348ac9d094febdaa4fdb26e97e83af1,True,adolescent,34.0,844,390,844,390,d0ed5bee-2678-4b0c-973e-46d7c8d5b605,d0ed5bee-2678-4b0c-973e-46d7c8d5b605,projectseed_production_april2024,1,,158190,314,html-button-response,"Mozilla/5.0 (iPhone; CPU iPhone OS 17_4_1 like Mac OS X) AppleWebKit/605.1.15 (KHTML, like Gecko) Version/17.4.1 Mobile/15E148 Safari/604.1",,1665,980,100.0,100.0,25.0,50.0,158882.0,B,34.0,158916.0,79.0,0.0,1.0,825.0,100.0,
0,1234,-999999,0,0,IowaTask-v2.0,-mobile,jspsych-0.3a-mobile,1,List1,2024-04-29,1,0,projectseed-iowa-production,0.0-0.0-2.0-0.79,eng,6e64b31c6348ac9d094febdaa4fdb26e97e83af1,True,adolescent,154.0,844,390,844,390,d0ed5bee-2678-4b0c-973e-46d7c8d5b605,d0ed5bee-2678-4b0c-973e-46d7c8d5b605,projectseed_production_april2024,1,,159694,318,html-button-response,"Mozilla/5.0 (iPhone; CPU iPhone OS 17_4_1 like Mac OS X) AppleWebKit/605.1.15 (KHTML, like Gecko) Version/17.4.1 Mobile/15E148 Safari/604.1",,1665,980,100.0,100.0,25.0,50.0,160267.0,B,154.0,160421.0,80.0,0.0,1.0,925.0,100.0,
0,1234,-999999,0,0,IowaTask-v2.0,-mobile,jspsych-0.3a-mobile,1,List1,2024-04-29,1,0,projectseed-iowa-production,0.0-0.0-2.0-0.80,eng,6e64b31c6348ac9d094febdaa4fdb26e97e83af1,True,adolescent,473.0,844,390,844,390,d0ed5bee-2678-4b0c-973e-46d7c8d5b605,d0ed5bee-2678-4b0c-973e-46d7c8d5b605,projectseed_production_april2024,1,,161520,322,html-button-response,"Mozilla/5.0 (iPhone; CPU iPhone OS 17_4_1 like Mac OS X) AppleWebKit/605.1.15 (KHTML, like Gecko) Version/17.4.1 Mobile/15E148 Safari/604.1",,1665,980,100.0,100.0,25.0,50.0,161774.0,B,473.0,162247.0,81.0,0.0,1.0,1025.0,100.0,
0,1234,-999999,0,0,IowaTask-v2.0,-mobile,jspsych-0.3a-mobile,1,List1,2024-04-29,1,0,projectseed-iowa-production,0.0-0.0-2.0-0.81,eng,6e64b31c6348ac9d094febdaa4fdb26e97e83af1,True,adolescent,295.0,844,390,844,390,d0ed5bee-2678-4b0c-973e-46d7c8d5b605,d0ed5bee-2678-4b0c-973e-46d7c8d5b605,projectseed_production_april2024,1,,163169,326,html-button-response,"Mozilla/5.0 (iPhone; CPU iPhone OS 17_4_1 like Mac OS X) AppleWebKit/605.1.15 (KHTML, like Gecko) Version/17.4.1 Mobile/15E148 Safari/604.1",,1665,980,100.0,100.0,25.0,50.0,163601.00000000003,B,295.0,163896.00000000003,82.0,0.0,1.0,1125.0,100.0,
0,1234,-999999,0,0,IowaTask-v2.0,-mobile,jspsych-0.3a-mobile,1,List1,2024-04-29,1,0,projectseed-iowa-production,0.0-0.0-2.0-0.82,eng,6e64b31c6348ac9d094febdaa4fdb26e97e83af1,True,adolescent,176.0,844,390,844,390,d0ed5bee-2678-4b0c-973e-46d7c8d5b605,d0ed5bee-2678-4b0c-973e-46d7c8d5b605,projectseed_production_april2024,1,,164698,330,html-button-response,"Mozilla/5.0 (iPhone; CPU iPhone OS 17_4_1 like Mac OS X) AppleWebKit/605.1.15 (KHTML, like Gecko) Version/17.4.1 Mobile/15E148 Safari/604.1",,1665,980,100.0,-1150.0,25.0,50.0,165248.0,B,176.0,165424.0,83.0,-1250.0,1.0,-25.0,-1150.0,
0,1234,-999999,0,0,IowaTask-v2.0,-mobile,jspsych-0.3a-mobile,1,List1,2024-04-29,1,0,projectseed-iowa-production,0.0-0.0-2.0-0.83,eng,6e64b31c6348ac9d094febdaa4fdb26e97e83af1,True,adolescent,97.0,844,390,844,390,d0ed5bee-2678-4b0c-973e-46d7c8d5b605,d0ed5bee-2678-4b0c-973e-46d7c8d5b605,projectseed_production_april2024,1,,167147,334,html-button-response,"Mozilla/5.0 (iPhone; CPU iPhone OS 17_4_1 like Mac OS X) AppleWebKit/605.1.15 (KHTML, like Gecko) Version/17.4.1 Mobile/15E148 Safari/604.1",,1665,980,100.0,100.0,25.0,50.0,167777.0,D,97.0,167874.0,84.0,0.0,3.0,25.0,50.0,
0,1234,-999999,0,0,IowaTask-v2.0,-mobile,jspsych-0.3a-mobile,1,List1,2024-04-29,1,0,projectseed-iowa-production,0.0-0.0-2.0-0.84,eng,6e64b31c6348ac9d094febdaa4fdb26e97e83af1,True,adolescent,387.0,844,390,844,390,d0ed5bee-2678-4b0c-973e-46d7c8d5b605,d0ed5bee-2678-4b0c-973e-46d7c8d5b605,projectseed_production_april2024,1,,168887,338,html-button-response,"Mozilla/5.0 (iPhone; CPU iPhone OS 17_4_1 like Mac OS X) AppleWebKit/605.1.15 (KHTML, like Gecko) Version/17.4.1 Mobile/15E148 Safari/604.1",,1665,980,100.0,100.0,25.0,50.0,169227.0,C,387.0,169614.0,85.0,-25.0,2.0,50.0,25.0,
0,1234,-999999,0,0,IowaTask-v2.0,-mobile,jspsych-0.3a-mobile,1,List1,2024-04-29,1,0,projectseed-iowa-production,0.0-0.0-2.0-0.85,eng,6e64b31c6348ac9d094febdaa4fdb26e97e83af1,True,adolescent,34.0,844,390,844,390,d0ed5bee-2678-4b0c-973e-46d7c8d5b605,d0ed5bee-2678-4b0c-973e-46d7c8d5b605,projectseed_production_april2024,1,,171274,342,html-button-response,"Mozilla/5.0 (iPhone; CPU iPhone OS 17_4_1 like Mac OS X) AppleWebKit/605.1.15 (KHTML, like Gecko) Version/17.4.1 Mobile/15E148 Safari/604.1",,1665,980,100.0,100.0,50.0,50.0,171966.0,B,34.0,172000.0,86.0,0.0,1.0,150.0,100.0,
0,1234,-999999,0,0,IowaTask-v2.0,-mobile,jspsych-0.3a-mobile,1,List1,2024-04-29,1,0,projectseed-iowa-production,0.0-0.0-2.0-0.86,eng,6e64b31c6348ac9d094febdaa4fdb26e97e83af1,True,adolescent,190.0,844,390,844,390,d0ed5bee-2678-4b0c-973e-46d7c8d5b605,d0ed5bee-2678-4b0c-973e-46d7c8d5b605,projectseed_production_april2024,1,,172814,346,html-button-response,"Mozilla/5.0 (iPhone; CPU iPhone OS 17_4_1 like Mac OS X) AppleWebKit/605.1.15 (KHTML, like Gecko) Version/17.4.1 Mobile/15E148 Safari/604.1",,1665,980,100.0,100.0,50.0,50.0,173350.0,A,190.0,173540.0,87.0,0.0,0.0,250.0,100.0,
0,1234,-999999,0,0,IowaTask-v2.0,-mobile,jspsych-0.3a-mobile,1,List1,2024-04-29,1,0,projectseed-iowa-production,0.0-0.0-2.0-0.87,eng,6e64b31c6348ac9d094febdaa4fdb26e97e83af1,True,adolescent,138.0,844,390,844,390,d0ed5bee-2678-4b0c-973e-46d7c8d5b605,d0ed5bee-2678-4b0c-973e-46d7c8d5b605,projectseed_production_april2024,1,,174303,350,html-button-response,"Mozilla/5.0 (iPhone; CPU iPhone OS 17_4_1 like Mac OS X) AppleWebKit/605.1.15 (KHTML, like Gecko) Version/17.4.1 Mobile/15E148 Safari/604.1",,1665,980,100.0,100.0,50.0,50.0,174891.0,B,138.0,175029.0,88.0,0.0,1.0,350.0,100.0,
0,1234,-999999,0,0,IowaTask-v2.0,-mobile,jspsych-0.3a-mobile,1,List1,2024-04-29,1,0,projectseed-iowa-production,0.0-0.0-2.0-0.88,eng,6e64b31c6348ac9d094febdaa4fdb26e97e83af1,True,adolescent,131.0,844,390,844,390,d0ed5bee-2678-4b0c-973e-46d7c8d5b605,d0ed5bee-2678-4b0c-973e-46d7c8d5b605,projectseed_production_april2024,1,,175789,354,html-button-response,"Mozilla/5.0 (iPhone; CPU iPhone OS 17_4_1 like Mac OS X) AppleWebKit/605.1.15 (KHTML, like Gecko) Version/17.4.1 Mobile/15E148 Safari/604.1",,1665,980,100.0,100.0,50.0,50.0,176384.00000000003,B,131.0,176515.00000000003,89.0,0.0,1.0,450.0,100.0,
0,1234,-999999,0,0,IowaTask-v2.0,-mobile,jspsych-0.3a-mobile,1,List1,2024-04-29,1,0,projectseed-iowa-production,0.0-0.0-2.0-0.89,eng,6e64b31c6348ac9d094febdaa4fdb26e97e83af1,True,adolescent,98.0,844,390,844,390,d0ed5bee-2678-4b0c-973e-46d7c8d5b605,d0ed5bee-2678-4b0c-973e-46d7c8d5b605,projectseed_production_april2024,1,,177238,358,html-button-response,"Mozilla/5.0 (iPhone; CPU iPhone OS 17_4_1 like Mac OS X) AppleWebKit/605.1.15 (KHTML, like Gecko) Version/17.4.1 Mobile/15E148 Safari/604.1",,1665,980,100.0,100.0,50.0,50.0,177866.0,B,98.0,177964.0,90.0,0.0,1.0,550.0,100.0,
0,1234,-999999,0,0,IowaTask-v2.0,-mobile,jspsych-0.3a-mobile,1,List1,2024-04-29,1,0,projectseed-iowa-production,0.0-0.0-2.0-0.90,eng,6e64b31c6348ac9d094febdaa4fdb26e97e83af1,True,adolescent,83.0,844,390,844,390,d0ed5bee-2678-4b0c-973e-46d7c8d5b605,d0ed5bee-2678-4b0c-973e-46d7c8d5b605,projectseed_production_april2024,1,,178672,362,html-button-response,"Mozilla/5.0 (iPhone; CPU iPhone OS 17_4_1 like Mac OS X) AppleWebKit/605.1.15 (KHTML, like Gecko) Version/17.4.1 Mobile/15E148 Safari/604.1",,1665,980,100.0,-1150.0,50.0,50.0,179315.0,B,83.0,179398.0,91.0,-1250.0,1.0,-600.0,-1150.0,
0,1234,-999999,0,0,IowaTask-v2.0,-mobile,jspsych-0.3a-mobile,1,List1,2024-04-29,1,0,projectseed-iowa-production,0.0-0.0-2.0-0.91,eng,6e64b31c6348ac9d094febdaa4fdb26e97e83af1,True,adolescent,128.0,844,390,844,390,d0ed5bee-2678-4b0c-973e-46d7c8d5b605,d0ed5bee-2678-4b0c-973e-46d7c8d5b605,projectseed_production_april2024,1,,181157,366,html-button-response,"Mozilla/5.0 (iPhone; CPU iPhone OS 17_4_1 like Mac OS X) AppleWebKit/605.1.15 (KHTML, like Gecko) Version/17.4.1 Mobile/15E148 Safari/604.1",,1665,980,100.0,100.0,50.0,50.0,181755.0,B,128.0,181883.0,92.0,0.0,1.0,-500.0,100.0,
0,1234,-999999,0,0,IowaTask-v2.0,-mobile,jspsych-0.3a-mobile,1,List1,2024-04-29,1,0,projectseed-iowa-production,0.0-0.0-2.0-0.92,eng,6e64b31c6348ac9d094febdaa4fdb26e97e83af1,True,adolescent,306.0,844,390,844,390,d0ed5bee-2678-4b0c-973e-46d7c8d5b605,d0ed5bee-2678-4b0c-973e-46d7c8d5b605,projectseed_production_april2024,1,,182815,370,html-button-response,"Mozilla/5.0 (iPhone; CPU iPhone OS 17_4_1 like Mac OS X) AppleWebKit/605.1.15 (KHTML, like Gecko) Version/17.4.1 Mobile/15E148 Safari/604.1",,1665,980,100.0,100.0,50.0,50.0,183235.0,B,306.0,183541.0,93.0,0.0,1.0,-400.0,100.0,
0,1234,-999999,0,0,IowaTask-v2.0,-mobile,jspsych-0.3a-mobile,1,List1,2024-04-29,1,0,projectseed-iowa-production,0.0-0.0-2.0-0.93,eng,6e64b31c6348ac9d094febdaa4fdb26e97e83af1,True,adolescent,297.0,844,390,844,390,d0ed5bee-2678-4b0c-973e-46d7c8d5b605,d0ed5bee-2678-4b0c-973e-46d7c8d5b605,projectseed_production_april2024,1,,184466,374,html-button-response,"Mozilla/5.0 (iPhone; CPU iPhone OS 17_4_1 like Mac OS X) AppleWebKit/605.1.15 (KHTML, like Gecko) Version/17.4.1 Mobile/15E148 Safari/604.1",,1665,980,100.0,100.0,50.0,50.0,184895.0,B,297.0,185192.0,94.0,0.0,1.0,-300.0,100.0,
0,1234,-999999,0,0,IowaTask-v2.0,-mobile,jspsych-0.3a-mobile,1,List1,2024-04-29,1,0,projectseed-iowa-production,0.0-0.0-2.0-0.94,eng,6e64b31c6348ac9d094febdaa4fdb26e97e83af1,True,adolescent,964.0,844,390,844,390,d0ed5bee-2678-4b0c-973e-46d7c8d5b605,d0ed5bee-2678-4b0c-973e-46d7c8d5b605,projectseed_production_april2024,1,,186784,378,html-button-response,"Mozilla/5.0 (iPhone; CPU iPhone OS 17_4_1 like Mac OS X) AppleWebKit/605.1.15 (KHTML, like Gecko) Version/17.4.1 Mobile/15E148 Safari/604.1",,1665,980,100.0,100.0,50.0,50.0,186546.0,B,964.0,187510.0,95.0,0.0,1.0,-200.0,100.0,
0,1234,-999999,0,0,IowaTask-v2.0,-mobile,jspsych-0.3a-mobile,1,List1,2024-04-29,1,0,projectseed-iowa-production,0.0-0.0-2.0-0.95,eng,6e64b31c6348ac9d094febdaa4fdb26e97e83af1,True,adolescent,76.0,844,390,844,390,d0ed5bee-2678-4b0c-973e-46d7c8d5b605,d0ed5bee-2678-4b0c-973e-46d7c8d5b605,projectseed_production_april2024,1,,188212,382,html-button-response,"Mozilla/5.0 (iPhone; CPU iPhone OS 17_4_1 like Mac OS X) AppleWebKit/605.1.15 (KHTML, like Gecko) Version/17.4.1 Mobile/15E148 Safari/604.1",,1665,980,100.0,100.0,50.0,50.0,188862.00000000003,B,76.0,188938.00000000003,96.0,0.0,1.0,-100.0,100.0,
0,1234,-999999,0,0,IowaTask-v2.0,-mobile,jspsych-0.3a-mobile,1,List1,2024-04-29,1,0,projectseed-iowa-production,0.0-0.0-2.0-0.96,eng,6e64b31c6348ac9d094febdaa4fdb26e97e83af1,True,adolescent,619.0,844,390,844,390,d0ed5bee-2678-4b0c-973e-46d7c8d5b605,d0ed5bee-2678-4b0c-973e-46d7c8d5b605,projectseed_production_april2024,1,,190184,386,html-button-response,"Mozilla/5.0 (iPhone; CPU iPhone OS 17_4_1 like Mac OS X) AppleWebKit/605.1.15 (KHTML, like Gecko) Version/17.4.1 Mobile/15E148 Safari/604.1",,1665,980,100.0,100.0,50.0,50.0,190291.0,B,619.0,190910.0,97.0,0.0,1.0,0.0,100.0,
0,1234,-999999,0,0,IowaTask-v2.0,-mobile,jspsych-0.3a-mobile,1,List1,2024-04-29,1,0,projectseed-iowa-production,0.0-0.0-2.0-0.97,eng,6e64b31c6348ac9d094febdaa4fdb26e97e83af1,True,adolescent,483.0,844,390,844,390,d0ed5bee-2678-4b0c-973e-46d7c8d5b605,d0ed5bee-2678-4b0c-973e-46d7c8d5b605,projectseed_production_april2024,1,,192021,390,html-button-response,"Mozilla/5.0 (iPhone; CPU iPhone OS 17_4_1 like Mac OS X) AppleWebKit/605.1.15 (KHTML, like Gecko) Version/17.4.1 Mobile/15E148 Safari/604.1",,1665,980,100.0,100.0,50.0,50.0,192264.0,B,483.0,192747.0,98.0,0.0,1.0,100.0,100.0,
0,1234,-999999,0,0,IowaTask-v2.0,-mobile,jspsych-0.3a-mobile,1,List1,2024-04-29,1,0,projectseed-iowa-production,0.0-0.0-2.0-0.98,eng,6e64b31c6348ac9d094febdaa4fdb26e97e83af1,True,adolescent,482.0,844,390,844,390,d0ed5bee-2678-4b0c-973e-46d7c8d5b605,d0ed5bee-2678-4b0c-973e-46d7c8d5b605,projectseed_production_april2024,1,,193856,394,html-button-response,"Mozilla/5.0 (iPhone; CPU iPhone OS 17_4_1 like Mac OS X) AppleWebKit/605.1.15 (KHTML, like Gecko) Version/17.4.1 Mobile/15E148 Safari/604.1",,1665,980,100.0,100.0,50.0,50.0,194099.00000000003,B,482.0,194581.00000000003,99.0,0.0,1.0,200.0,100.0,
0,1234,-999999,0,0,IowaTask-v2.0,-mobile,jspsych-0.3a-mobile,1,List1,2024-04-29,1,0,projectseed-iowa-production,0.0-0.0-2.0-0.99,eng,6e64b31c6348ac9d094febdaa4fdb26e97e83af1,True,adolescent,123.0,844,390,844,390,d0ed5bee-2678-4b0c-973e-46d7c8d5b605,d0ed5bee-2678-4b0c-973e-46d7c8d5b605,projectseed_production_april2024,1,,195334,398,html-button-response,"Mozilla/5.0 (iPhone; CPU iPhone OS 17_4_1 like Mac OS X) AppleWebKit/605.1.15 (KHTML, like Gecko) Version/17.4.1 Mobile/15E148 Safari/604.1",,1665,980,100.0,100.0,50.0,50.0,195936.0,B,123.0,196059.0,100.0,0.0,1.0,300.0,100.0,
0,1234,-999999,0,0,IowaTask-v2.0,-mobile,jspsych-0.3a-mobile,1,List1,2024-04-29,2,0,projectseed-iowa-production,0.0-0.0-2.0-0.0,eng,6e64b31c6348ac9d094febdaa4fdb26e97e83af1,True,adolescent,1192.0,844,390,844,390,63e16b92-d768-4f4e-9b23-1236db17f48c,63e16b92-d768-4f4e-9b23-1236db17f48c,projectseed_production_april2024,1,,6695,2,html-button-response,"Mozilla/5.0 (iPhone; CPU iPhone OS 17_4_1 like Mac OS X) AppleWebKit/605.1.15 (KHTML, like Gecko) Version/17.4.1 Mobile/15E148 Safari/604.1",,1665,980,100.0,100.0,50.0,50.0,6054.0,C,1192.0,7246.0,1.0,0.0,2.0,2050.0,50.0,
0,1234,-999999,0,0,IowaTask-v2.0,-mobile,jspsych-0.3a-mobile,1,List1,2024-04-29,2,0,projectseed-iowa-production,0.0-0.0-2.0-0.1,eng,6e64b31c6348ac9d094febdaa4fdb26e97e83af1,True,adolescent,318.0,844,390,844,390,63e16b92-d768-4f4e-9b23-1236db17f48c,63e16b92-d768-4f4e-9b23-1236db17f48c,projectseed_production_april2024,1,,8368,6,html-button-response,"Mozilla/5.0 (iPhone; CPU iPhone OS 17_4_1 like Mac OS X) AppleWebKit/605.1.15 (KHTML, like Gecko) Version/17.4.1 Mobile/15E148 Safari/604.1",,1665,980,100.0,100.0,-25.0,50.0,8600.000000000002,D,318.0,8918.000000000002,2.0,0.0,3.0,2100.0,50.0,
0,1234,-999999,0,0,IowaTask-v2.0,-mobile,jspsych-0.3a-mobile,1,List1,2024-04-29,2,0,projectseed-iowa-production,0.0-0.0-2.0-0.2,eng,6e64b31c6348ac9d094febdaa4fdb26e97e83af1,True,adolescent,307.0,844,390,844,390,63e16b92-d768-4f4e-9b23-1236db17f48c,63e16b92-d768-4f4e-9b23-1236db17f48c,projectseed_production_april2024,1,,10028,10,html-button-response,"Mozilla/5.0 (iPhone; CPU iPhone OS 17_4_1 like Mac OS X) AppleWebKit/605.1.15 (KHTML, like Gecko) Version/17.4.1 Mobile/15E148 Safari/604.1",,1665,980,100.0,100.0,-25.0,50.0,10271.0,B,307.0,10578.0,3.0,0.0,1.0,2200.0,100.0,
0,1234,-999999,0,0,IowaTask-v2.0,-mobile,jspsych-0.3a-mobile,1,List1,2024-04-29,2,0,projectseed-iowa-production,0.0-0.0-2.0-0.3,eng,6e64b31c6348ac9d094febdaa4fdb26e97e83af1,True,adolescent,50.0,844,390,844,390,63e16b92-d768-4f4e-9b23-1236db17f48c,63e16b92-d768-4f4e-9b23-1236db17f48c,projectseed_production_april2024,1,,11432,14,html-button-response,"Mozilla/5.0 (iPhone; CPU iPhone OS 17_4_1 like Mac OS X) AppleWebKit/605.1.15 (KHTML, like Gecko) Version/17.4.1 Mobile/15E148 Safari/604.1",,1665,980,100.0,100.0,-25.0,50.0,11932.000000000002,B,50.0,11982.000000000002,4.0,0.0,1.0,2300.0,100.0,
0,1234,-999999,0,0,IowaTask-v2.0,-mobile,jspsych-0.3a-mobile,1,List1,2024-04-29,2,0,projectseed-iowa-production,0.0-0.0-2.0-0.4,eng,6e64b31c6348ac9d094febdaa4fdb26e97e83af1,True,adolescent,277.0,844,390,844,390,63e16b92-d768-4f4e-9b23-1236db17f48c,63e16b92-d768-4f4e-9b23-1236db17f48c,projectseed_production_april2024,1,,13027,18,html-button-response,"Mozilla/5.0 (iPhone; CPU iPhone OS 17_4_1 like Mac OS X) AppleWebKit/605.1.15 (KHTML, like Gecko) Version/17.4.1 Mobile/15E148 Safari/604.1",,1665,980,100.0,100.0,-25.0,50.0,13300.0,B,277.0,13577.0,5.0,0.0,1.0,2400.0,100.0,
0,1234,-999999,0,0,IowaTask-v2.0,-mobile,jspsych-0.3a-mobile,1,List1,2024-04-29,2,0,projectseed-iowa-production,0.0-0.0-2.0-0.5,eng,6e64b31c6348ac9d094febdaa4fdb26e97e83af1,True,adolescent,87.0,844,390,844,390,63e16b92-d768-4f4e-9b23-1236db17f48c,63e16b92-d768-4f4e-9b23-1236db17f48c,projectseed_production_april2024,1,,14460,22,html-button-response,"Mozilla/5.0 (iPhone; CPU iPhone OS 17_4_1 like Mac OS X) AppleWebKit/605.1.15 (KHTML, like Gecko) Version/17.4.1 Mobile/15E148 Safari/604.1",,1665,980,100.0,100.0,-25.0,50.0,14923.0,B,87.0,15010.0,6.0,0.0,1.0,2500.0,100.0,
0,1234,-999999,0,0,IowaTask-v2.0,-mobile,jspsych-0.3a-mobile,1,List1,2024-04-29,2,0,projectseed-iowa-production,0.0-0.0-2.0-0.6,eng,6e64b31c6348ac9d094febdaa4fdb26e97e83af1,True,adolescent,152.0,844,390,844,390,63e16b92-d768-4f4e-9b23-1236db17f48c,63e16b92-d768-4f4e-9b23-1236db17f48c,projectseed_production_april2024,1,,15962,26,html-button-response,"Mozilla/5.0 (iPhone; CPU iPhone OS 17_4_1 like Mac OS X) AppleWebKit/605.1.15 (KHTML, like Gecko) Version/17.4.1 Mobile/15E148 Safari/604.1",,1665,980,100.0,100.0,-25.0,50.0,16360.0,B,152.0,16512.0,7.0,0.0,1.0,2600.0,100.0,
0,1234,-999999,0,0,IowaTask-v2.0,-mobile,jspsych-0.3a-mobile,1,List1,2024-04-29,2,0,projectseed-iowa-production,0.0-0.0-2.0-0.7,eng,6e64b31c6348ac9d094febdaa4fdb26e97e83af1,True,adolescent,83.0,844,390,844,390,63e16b92-d768-4f4e-9b23-1236db17f48c,63e16b92-d768-4f4e-9b23-1236db17f48c,projectseed_production_april2024,1,,17397,30,html-button-response,"Mozilla/5.0 (iPhone; CPU iPhone OS 17_4_1 like Mac OS X) AppleWebKit/605.1.15 (KHTML, like Gecko) Version/17.4.1 Mobile/15E148 Safari/604.1",,1665,980,100.0,-1150.0,-25.0,50.0,17864.0,B,83.0,17947.0,8.0,-1250.0,1.0,1450.0,-1150.0,
0,1234,-999999,0,0,IowaTask-v2.0,-mobile,jspsych-0.3a-mobile,1,List1,2024-04-29,2,0,projectseed-iowa-production,0.0-0.0-2.0-0.8,eng,6e64b31c6348ac9d094febdaa4fdb26e97e83af1,True,adolescent,437.0,844,390,844,390,63e16b92-d768-4f4e-9b23-1236db17f48c,63e16b92-d768-4f4e-9b23-1236db17f48c,projectseed_production_april2024,1,,20187,34,html-button-response,"Mozilla/5.0 (iPhone; CPU iPhone OS 17_4_1 like Mac OS X) AppleWebKit/605.1.15 (KHTML, like Gecko) Version/17.4.1 Mobile/15E148 Safari/604.1",,1665,980,100.0,100.0,-25.0,50.0,20301.0,B,437.0,20738.0,9.0,0.0,1.0,1550.0,100.0,
0,1234,-999999,0,0,IowaTask-v2.0,-mobile,jspsych-0.3a-mobile,1,List1,2024-04-29,2,0,projectseed-iowa-production,0.0-0.0-2.0-0.9,eng,6e64b31c6348ac9d094febdaa4fdb26e97e83af1,True,adolescent,244.0,844,390,844,390,63e16b92-d768-4f4e-9b23-1236db17f48c,63e16b92-d768-4f4e-9b23-1236db17f48c,projectseed_production_april2024,1,,21782,38,html-button-response,"Mozilla/5.0 (iPhone; CPU iPhone OS 17_4_1 like Mac OS X) AppleWebKit/605.1.15 (KHTML, like Gecko) Version/17.4.1 Mobile/15E148 Safari/604.1",,1665,980,100.0,100.0,-25.0,50.0,22088.0,B,244.0,22332.0,10.0,0.0,1.0,1650.0,100.0,
0,1234,-999999,0,0,IowaTask-v2.0,-mobile,jspsych-0.3a-mobile,1,List1,2024-04-29,2,0,projectseed-iowa-production,0.0-0.0-2.0-0.10,eng,6e64b31c6348ac9d094febdaa4fdb26e97e83af1,True,adolescent,351.0,844,390,844,390,63e16b92-d768-4f4e-9b23-1236db17f48c,63e16b92-d768-4f4e-9b23-1236db17f48c,projectseed_production_april2024,1,,23474,42,html-button-response,"Mozilla/5.0 (iPhone; CPU iPhone OS 17_4_1 like Mac OS X) AppleWebKit/605.1.15 (KHTML, like Gecko) Version/17.4.1 Mobile/15E148 Safari/604.1",,1665,980,100.0,100.0,-25.0,50.0,23675.0,D,351.0,24026.0,11.0,0.0,3.0,1700.0,50.0,
0,1234,-999999,0,0,IowaTask-v2.0,-mobile,jspsych-0.3a-mobile,1,List1,2024-04-29,2,0,projectseed-iowa-production,0.0-0.0-2.0-0.11,eng,6e64b31c6348ac9d094febdaa4fdb26e97e83af1,True,adolescent,283.0,844,390,844,390,63e16b92-d768-4f4e-9b23-1236db17f48c,63e16b92-d768-4f4e-9b23-1236db17f48c,projectseed_production_april2024,1,,25109,46,html-button-response,"Mozilla/5.0 (iPhone; CPU iPhone OS 17_4_1 like Mac OS X) AppleWebKit/605.1.15 (KHTML, like Gecko) Version/17.4.1 Mobile/15E148 Safari/604.1",,1665,980,100.0,100.0,-25.0,50.0,25376.0,C,283.0,25659.0,12.0,-75.0,2.0,1675.0,-25.0,
0,1234,-999999,0,0,IowaTask-v2.0,-mobile,jspsych-0.3a-mobile,1,List1,2024-04-29,2,0,projectseed-iowa-production,0.0-0.0-2.0-0.12,eng,6e64b31c6348ac9d094febdaa4fdb26e97e83af1,True,adolescent,232.0,844,390,844,390,63e16b92-d768-4f4e-9b23-1236db17f48c,63e16b92-d768-4f4e-9b23-1236db17f48c,projectseed_production_april2024,1,,27691,50,html-button-response,"Mozilla/5.0 (iPhone; CPU iPhone OS 17_4_1 like Mac OS X) AppleWebKit/605.1.15 (KHTML, like Gecko) Version/17.4.1 Mobile/15E148 Safari/604.1",,1665,980,100.0,100.0,50.0,50.0,28010.0,B,232.0,28242.0,13.0,0.0,1.0,1775.0,100.0,
0,1234,-999999,0,0,IowaTask-v2.0,-mobile,jspsych-0.3a-mobile,1,List1,2024-04-29,2,0,projectseed-iowa-production,0.0-0.0-2.0-0.13,eng,6e64b31c6348ac9d094febdaa4fdb26e97e83af1,True,adolescent,196.0,844,390,844,390,63e16b92-d768-4f4e-9b23-1236db17f48c,63e16b92-d768-4f4e-9b23-1236db17f48c,projectseed_production_april2024,1,,29238,54,html-button-response,"Mozilla/5.0 (iPhone; CPU iPhone OS 17_4_1 like Mac OS X) AppleWebKit/605.1.15 (KHTML, like Gecko) Version/17.4.1 Mobile/15E148 Safari/604.1",,1665,980,100.0,100.0,50.0,50.0,29593.0,D,196.0,29789.0,14.0,0.0,3.0,1825.0,50.0,
0,1234,-999999,0,0,IowaTask-v2.0,-mobile,jspsych-0.3a-mobile,1,List1,2024-04-29,2,0,projectseed-iowa-production,0.0-0.0-2.0-0.14,eng,6e64b31c6348ac9d094febdaa4fdb26e97e83af1,True,adolescent,423.0,844,390,844,390,63e16b92-d768-4f4e-9b23-1236db17f48c,63e16b92-d768-4f4e-9b23-1236db17f48c,projectseed_production_april2024,1,,31011,58,html-button-response,"Mozilla/5.0 (iPhone; CPU iPhone OS 17_4_1 like Mac OS X) AppleWebKit/605.1.15 (KHTML, like Gecko) Version/17.4.1 Mobile/15E148 Safari/604.1",,1665,980,100.0,100.0,50.0,50.0,31139.0,A,423.0,31562.0,15.0,0.0,0.0,1925.0,100.0,
0,1234,-999999,0,0,IowaTask-v2.0,-mobile,jspsych-0.3a-mobile,1,List1,2024-04-29,2,0,projectseed-iowa-production,0.0-0.0-2.0-0.15,eng,6e64b31c6348ac9d094febdaa4fdb26e97e83af1,True,adolescent,316.0,844,390,844,390,63e16b92-d768-4f4e-9b23-1236db17f48c,63e16b92-d768-4f4e-9b23-1236db17f48c,projectseed_production_april2024,1,,32680,62,html-button-response,"Mozilla/5.0 (iPhone; CPU iPhone OS 17_4_1 like Mac OS X) AppleWebKit/605.1.15 (KHTML, like Gecko) Version/17.4.1 Mobile/15E148 Safari/604.1",,1665,980,-250.0,100.0,50.0,50.0,32914.00000000001,A,316.0,33230.00000000001,16.0,-350.0,0.0,1675.0,-250.0,
0,1234,-999999,0,0,IowaTask-v2.0,-mobile,jspsych-0.3a-mobile,1,List1,2024-04-29,2,0,projectseed-iowa-production,0.0-0.0-2.0-0.16,eng,6e64b31c6348ac9d094febdaa4fdb26e97e83af1,True,adolescent,34.0,844,390,844,390,63e16b92-d768-4f4e-9b23-1236db17f48c,63e16b92-d768-4f4e-9b23-1236db17f48c,projectseed_production_april2024,1,,35062,66,html-button-response,"Mozilla/5.0 (iPhone; CPU iPhone OS 17_4_1 like Mac OS X) AppleWebKit/605.1.15 (KHTML, like Gecko) Version/17.4.1 Mobile/15E148 Safari/604.1",,1665,980,-50.0,100.0,50.0,50.0,35578.0,D,34.0,35612.0,17.0,0.0,3.0,1725.0,50.0,
0,1234,-999999,0,0,IowaTask-v2.0,-mobile,jspsych-0.3a-mobile,1,List1,2024-04-29,2,0,projectseed-iowa-production,0.0-0.0-2.0-0.17,eng,6e64b31c6348ac9d094febdaa4fdb26e97e83af1,True,adolescent,199.0,844,390,844,390,63e16b92-d768-4f4e-9b23-1236db17f48c,63e16b92-d768-4f4e-9b23-1236db17f48c,projectseed_production_april2024,1,,36612,70,html-button-response,"Mozilla/5.0 (iPhone; CPU iPhone OS 17_4_1 like Mac OS X) AppleWebKit/605.1.15 (KHTML, like Gecko) Version/17.4.1 Mobile/15E148 Safari/604.1",,1665,980,-50.0,100.0,50.0,50.0,36964.00000000001,A,199.0,37163.00000000001,18.0,-150.0,0.0,1675.0,-50.0,
0,1234,-999999,0,0,IowaTask-v2.0,-mobile,jspsych-0.3a-mobile,1,List1,2024-04-29,2,0,projectseed-iowa-production,0.0-0.0-2.0-0.18,eng,6e64b31c6348ac9d094febdaa4fdb26e97e83af1,True,adolescent,98.0,844,390,844,390,63e16b92-d768-4f4e-9b23-1236db17f48c,63e16b92-d768-4f4e-9b23-1236db17f48c,projectseed_production_april2024,1,,39061,74,html-button-response,"Mozilla/5.0 (iPhone; CPU iPhone OS 17_4_1 like Mac OS X) AppleWebKit/605.1.15 (KHTML, like Gecko) Version/17.4.1 Mobile/15E148 Safari/604.1",,1665,980,100.0,100.0,50.0,50.0,39513.00000000001,D,98.0,39611.00000000001,19.0,0.0,3.0,1725.0,50.0,
0,1234,-999999,0,0,IowaTask-v2.0,-mobile,jspsych-0.3a-mobile,1,List1,2024-04-29,2,0,projectseed-iowa-production,0.0-0.0-2.0-0.19,eng,6e64b31c6348ac9d094febdaa4fdb26e97e83af1,True,adolescent,325.0,844,390,844,390,63e16b92-d768-4f4e-9b23-1236db17f48c,63e16b92-d768-4f4e-9b23-1236db17f48c,projectseed_production_april2024,1,,40736,78,html-button-response,"Mozilla/5.0 (iPhone; CPU iPhone OS 17_4_1 like Mac OS X) AppleWebKit/605.1.15 (KHTML, like Gecko) Version/17.4.1 Mobile/15E148 Safari/604.1",,1665,980,100.0,100.0,50.0,50.0,40962.0,A,325.0,41287.0,20.0,0.0,0.0,1825.0,100.0,
0,1234,-999999,0,0,IowaTask-v2.0,-mobile,jspsych-0.3a-mobile,1,List1,2024-04-29,2,0,projectseed-iowa-production,0.0-0.0-2.0-0.20,eng,6e64b31c6348ac9d094febdaa4fdb26e97e83af1,True,adolescent,450.0,844,390,844,390,63e16b92-d768-4f4e-9b23-1236db17f48c,63e16b92-d768-4f4e-9b23-1236db17f48c,projectseed_production_april2024,1,,42537,82,html-button-response,"Mozilla/5.0 (iPhone; CPU iPhone OS 17_4_1 like Mac OS X) AppleWebKit/605.1.15 (KHTML, like Gecko) Version/17.4.1 Mobile/15E148 Safari/604.1",,1665,980,100.0,100.0,50.0,50.0,42638.0,C,450.0,43088.0,21.0,0.0,2.0,1875.0,50.0,
0,1234,-999999,0,0,IowaTask-v2.0,-mobile,jspsych-0.3a-mobile,1,List1,2024-04-29,2,0,projectseed-iowa-production,0.0-0.0-2.0-0.21,eng,6e64b31c6348ac9d094febdaa4fdb26e97e83af1,True,adolescent,128.0,844,390,844,390,63e16b92-d768-4f4e-9b23-1236db17f48c,63e16b92-d768-4f4e-9b23-1236db17f48c,projectseed_production_april2024,1,,44016,86,html-button-response,"Mozilla/5.0 (iPhone; CPU iPhone OS 17_4_1 like Mac OS X) AppleWebKit/605.1.15 (KHTML, like Gecko) Version/17.4.1 Mobile/15E148 Safari/604.1",,1665,980,100.0,100.0,0.0,50.0,44439.0,A,128.0,44567.0,22.0,0.0,0.0,1975.0,100.0,
0,1234,-999999,0,0,IowaTask-v2.0,-mobile,jspsych-0.3a-mobile,1,List1,2024-04-29,2,0,projectseed-iowa-production,0.0-0.0-2.0-0.22,eng,6e64b31c6348ac9d094febdaa4fdb26e97e83af1,True,adolescent,255.0,844,390,844,390,63e16b92-d768-4f4e-9b23-1236db17f48c,63e16b92-d768-4f4e-9b23-1236db17f48c,projectseed_production_april2024,1,,45621,90,html-button-response,"Mozilla/5.0 (iPhone; CPU iPhone OS 17_4_1 like Mac OS X) AppleWebKit/605.1.15 (KHTML, like Gecko) Version/17.4.1 Mobile/15E148 Safari/604.1",,1665,980,-150.0,100.0,0.0,50.0,45917.00000000001,A,255.0,46172.00000000001,23.0,-250.0,0.0,1825.0,-150.0,
0,1234,-999999,0,0,IowaTask-v2.0,-mobile,jspsych-0.3a-mobile,1,List1,2024-04-29,2,0,projectseed-iowa-production,0.0-0.0-2.0-0.23,eng,6e64b31c6348ac9d094febdaa4fdb26e97e83af1,True,adolescent,130.0,844,390,844,390,63e16b92-d768-4f4e-9b23-1236db17f48c,63e16b92-d768-4f4e-9b23-1236db17f48c,projectseed_production_april2024,1,,48102,94,html-button-response,"Mozilla/5.0 (iPhone; CPU iPhone OS 17_4_1 like Mac OS X) AppleWebKit/605.1.15 (KHTML, like Gecko) Version/17.4.1 Mobile/15E148 Safari/604.1",,1665,980,-100.0,100.0,0.0,50.0,48523.0,A,130.0,48653.0,24.0,-200.0,0.0,1725.0,-100.0,
0,1234,-999999,0,0,IowaTask-v2.0,-mobile,jspsych-0.3a-mobile,1,List1,2024-04-29,2,0,projectseed-iowa-production,0.0-0.0-2.0-0.24,eng,6e64b31c6348ac9d094febdaa4fdb26e97e83af1,True,adolescent,901.0,844,390,844,390,63e16b92-d768-4f4e-9b23-1236db17f48c,63e16b92-d768-4f4e-9b23-1236db17f48c,projectseed_production_april2024,1,,51327,98,html-button-response,"Mozilla/5.0 (iPhone; CPU iPhone OS 17_4_1 like Mac OS X) AppleWebKit/605.1.15 (KHTML, like Gecko) Version/17.4.1 Mobile/15E148 Safari/604.1",,1665,980,100.0,100.0,0.0,50.0,50977.0,C,901.0,51878.0,25.0,-50.0,2.0,1725.0,0.0,
0,1234,-999999,0,0,IowaTask-v2.0,-mobile,jspsych-0.3a-mobile,1,List1,2024-04-29,2,0,projectseed-iowa-production,0.0-0.0-2.0-0.25,eng,6e64b31c6348ac9d094febdaa4fdb26e97e83af1,True,adolescent,212.0,844,390,844,390,63e16b92-d768-4f4e-9b23-1236db17f48c,63e16b92-d768-4f4e-9b23-1236db17f48c,projectseed_production_april2024,1,,53889,102,html-button-response,"Mozilla/5.0 (iPhone; CPU iPhone OS 17_4_1 like Mac OS X) AppleWebKit/605.1.15 (KHTML, like Gecko) Version/17.4.1 Mobile/15E148 Safari/604.1",,1665,980,100.0,100.0,50.0,50.0,54228.0,C,212.0,54440.0,26.0,0.0,2.0,1775.0,50.0,
0,1234,-999999,0,0,IowaTask-v2.0,-mobile,jspsych-0.3a-mobile,1,List1,2024-04-29,2,0,projectseed-iowa-production,0.0-0.0-2.0-0.26,eng,6e64b31c6348ac9d094febdaa4fdb26e97e83af1,True,adolescent,376.0,844,390,844,390,63e16b92-d768-4f4e-9b23-1236db17f48c,63e16b92-d768-4f4e-9b23-1236db17f48c,projectseed_production_april2024,1,,55617,106,html-button-response,"Mozilla/5.0 (iPhone; CPU iPhone OS 17_4_1 like Mac OS X) AppleWebKit/605.1.15 (KHTML, like Gecko) Version/17.4.1 Mobile/15E148 Safari/604.1",,1665,980,100.0,100.0,50.0,50.0,55793.00000000001,C,376.0,56169.00000000001,27.0,0.0,2.0,1825.0,50.0,
0,1234,-999999,0,0,IowaTask-v2.0,-mobile,jspsych-0.3a-mobile,1,List1,2024-04-29,2,0,projectseed-iowa-production,0.0-0.0-2.0-0.27,eng,6e64b31c6348ac9d094febdaa4fdb26e97e83af1,True,adolescent,224.0,844,390,844,390,63e16b92-d768-4f4e-9b23-1236db17f48c,63e16b92-d768-4f4e-9b23-1236db17f48c,projectseed_production_april2024,1,,57195,110,html-button-response,"Mozilla/5.0 (iPhone; CPU iPhone OS 17_4_1 like Mac OS X) AppleWebKit/605.1.15 (KHTML, like Gecko) Version/17.4.1 Mobile/15E148 Safari/604.1",,1665,980,100.0,100.0,25.0,50.0,57522.0,A,224.0,57746.0,28.0,0.0,0.0,1925.0,100.0,
0,1234,-999999,0,0,IowaTask-v2.0,-mobile,jspsych-0.3a-mobile,1,List1,2024-04-29,2,0,projectseed-iowa-production,0.0-0.0-2.0-0.28,eng,6e64b31c6348ac9d094febdaa4fdb26e97e83af1,True,adolescent,436.0,844,390,844,390,63e16b92-d768-4f4e-9b23-1236db17f48c,63e16b92-d768-4f4e-9b23-1236db17f48c,projectseed_production_april2024,1,,58982,114,html-button-response,"Mozilla/5.0 (iPhone; CPU iPhone OS 17_4_1 like Mac OS X) AppleWebKit/605.1.15 (KHTML, like Gecko) Version/17.4.1 Mobile/15E148 Safari/604.1",,1665,980,-200.0,100.0,25.0,50.0,59098.0,C,436.0,59534.0,29.0,-25.0,2.0,1950.0,25.0,
0,1234,-999999,0,0,IowaTask-v2.0,-mobile,jspsych-0.3a-mobile,1,List1,2024-04-29,2,0,projectseed-iowa-production,0.0-0.0-2.0-0.29,eng,6e64b31c6348ac9d094febdaa4fdb26e97e83af1,True,adolescent,46.0,844,390,844,390,63e16b92-d768-4f4e-9b23-1236db17f48c,63e16b92-d768-4f4e-9b23-1236db17f48c,projectseed_production_april2024,1,,61397,118,html-button-response,"Mozilla/5.0 (iPhone; CPU iPhone OS 17_4_1 like Mac OS X) AppleWebKit/605.1.15 (KHTML, like Gecko) Version/17.4.1 Mobile/15E148 Safari/604.1",,1665,980,-200.0,100.0,50.0,50.0,61902.0,A,46.0,61948.0,30.0,-300.0,0.0,1750.0,-200.0,
0,1234,-999999,0,0,IowaTask-v2.0,-mobile,jspsych-0.3a-mobile,1,List1,2024-04-29,2,0,projectseed-iowa-production,0.0-0.0-2.0-0.30,eng,6e64b31c6348ac9d094febdaa4fdb26e97e83af1,True,adolescent,231.0,844,390,844,390,63e16b92-d768-4f4e-9b23-1236db17f48c,63e16b92-d768-4f4e-9b23-1236db17f48c,projectseed_production_april2024,1,,63981,122,html-button-response,"Mozilla/5.0 (iPhone; CPU iPhone OS 17_4_1 like Mac OS X) AppleWebKit/605.1.15 (KHTML, like Gecko) Version/17.4.1 Mobile/15E148 Safari/604.1",,1665,980,100.0,100.0,50.0,50.0,64301.0,A,231.0,64532.0,31.0,0.0,0.0,1850.0,100.0,
0,1234,-999999,0,0,IowaTask-v2.0,-mobile,jspsych-0.3a-mobile,1,List1,2024-04-29,2,0,projectseed-iowa-production,0.0-0.0-2.0-0.31,eng,6e64b31c6348ac9d094febdaa4fdb26e97e83af1,True,adolescent,753.0,844,390,844,390,63e16b92-d768-4f4e-9b23-1236db17f48c,63e16b92-d768-4f4e-9b23-1236db17f48c,projectseed_production_april2024,1,,66086,126,html-button-response,"Mozilla/5.0 (iPhone; CPU iPhone OS 17_4_1 like Mac OS X) AppleWebKit/605.1.15 (KHTML, like Gecko) Version/17.4.1 Mobile/15E148 Safari/604.1",,1665,980,-100.0,100.0,50.0,50.0,65884.0,B,753.0,66637.0,32.0,0.0,1.0,1950.0,100.0,
0,1234,-999999,0,0,IowaTask-v2.0,-mobile,jspsych-0.3a-mobile,1,List1,2024-04-29,2,0,projectseed-iowa-production,0.0-0.0-2.0-0.32,eng,6e64b31c6348ac9d094febdaa4fdb26e97e83af1,True,adolescent,685.0,844,390,844,390,63e16b92-d768-4f4e-9b23-1236db17f48c,63e16b92-d768-4f4e-9b23-1236db17f48c,projectseed_production_april2024,1,,68122,130,html-button-response,"Mozilla/5.0 (iPhone; CPU iPhone OS 17_4_1 like Mac OS X) AppleWebKit/605.1.15 (KHTML, like Gecko) Version/17.4.1 Mobile/15E148 Safari/604.1",,1665,980,-100.0,-1150.0,50.0,50.0,67989.0,B,685.0,68674.0,33.0,-1250.0,1.0,800.0,-1150.0,
0,1234,-999999,0,0,IowaTask-v2.0,-mobile,jspsych-0.3a-mobile,1,List1,2024-04-29,2,0,projectseed-iowa-production,0.0-0.0-2.0-0.33,eng,6e64b31c6348ac9d094febdaa4fdb26e97e83af1,True,adolescent,649.0,844,390,844,390,63e16b92-d768-4f4e-9b23-1236db17f48c,63e16b92-d768-4f4e-9b23-1236db17f48c,projectseed_production_april2024,1,,71124,134,html-button-response,"Mozilla/5.0 (iPhone; CPU iPhone OS 17_4_1 like Mac OS X) AppleWebKit/605.1.15 (KHTML, like Gecko) Version/17.4.1 Mobile/15E148 Safari/604.1",,1665,980,-100.0,100.0,50.0,50.0,71026.0,B,649.0,71675.0,34.0,0.0,1.0,900.0,100.0,
0,1234,-999999,0,0,IowaTask-v2.0,-mobile,jspsych-0.3a-mobile,1,List1,2024-04-29,2,0,projectseed-iowa-production,0.0-0.0-2.0-0.34,eng,6e64b31c6348ac9d094febdaa4fdb26e97e83af1,True,adolescent,497.0,844,390,844,390,63e16b92-d768-4f4e-9b23-1236db17f48c,63e16b92-d768-4f4e-9b23-1236db17f48c,projectseed_production_april2024,1,,72975,138,html-button-response,"Mozilla/5.0 (iPhone; CPU iPhone OS 17_4_1 like Mac OS X) AppleWebKit/605.1.15 (KHTML, like Gecko) Version/17.4.1 Mobile/15E148 Safari/604.1",,1665,980,-100.0,100.0,50.0,50.0,73030.0,B,497.0,73527.0,35.0,0.0,1.0,1000.0,100.0,
0,1234,-999999,0,0,IowaTask-v2.0,-mobile,jspsych-0.3a-mobile,1,List1,2024-04-29,2,0,projectseed-iowa-production,0.0-0.0-2.0-0.35,eng,6e64b31c6348ac9d094febdaa4fdb26e97e83af1,True,adolescent,230.0,844,390,844,390,63e16b92-d768-4f4e-9b23-1236db17f48c,63e16b92-d768-4f4e-9b23-1236db17f48c,projectseed_production_april2024,1,,74559,142,html-button-response,"Mozilla/5.0 (iPhone; CPU iPhone OS 17_4_1 like Mac OS X) AppleWebKit/605.1.15 (KHTML, like Gecko) Version/17.4.1 Mobile/15E148 Safari/604.1",,1665,980,-100.0,100.0,50.0,50.0,74884.0,B,230.0,75114.0,36.0,0.0,1.0,1100.0,100.0,
0,1234,-999999,0,0,IowaTask-v2.0,-mobile,jspsych-0.3a-mobile,1,List1,2024-04-29,2,0,projectseed-iowa-production,0.0-0.0-2.0-0.36,eng,6e64b31c6348ac9d094febdaa4fdb26e97e83af1,True,adolescent,141.0,844,390,844,390,63e16b92-d768-4f4e-9b23-1236db17f48c,63e16b92-d768-4f4e-9b23-1236db17f48c,projectseed_production_april2024,1,,76056,146,html-button-response,"Mozilla/5.0 (iPhone; CPU iPhone OS 17_4_1 like Mac OS X) AppleWebKit/605.1.15 (KHTML, like Gecko) Version/17.4.1 Mobile/15E148 Safari/604.1",,1665,980,-100.0,100.0,50.0,50.0,76466.0,B,141.0,76607.0,37.0,0.0,1.0,1200.0,100.0,
0,1234,-999999,0,0,IowaTask-v2.0,-mobile,jspsych-0.3a-mobile,1,List1,2024-04-29,2,0,projectseed-iowa-production,0.0-0.0-2.0-0.37,eng,6e64b31c6348ac9d094febdaa4fdb26e97e83af1,True,adolescent,82.0,844,390,844,390,63e16b92-d768-4f4e-9b23-1236db17f48c,63e16b92-d768-4f4e-9b23-1236db17f48c,projectseed_production_april2024,1,,77490,150,html-button-response,"Mozilla/5.0 (iPhone; CPU iPhone OS 17_4_1 like Mac OS X) AppleWebKit/605.1.15 (KHTML, like Gecko) Version/17.4.1 Mobile/15E148 Safari/604.1",,1665,980,-100.0,100.0,50.0,50.0,77959.0,D,82.0,78041.0,38.0,0.0,3.0,1250.0,50.0,
0,1234,-999999,0,0,IowaTask-v2.0,-mobile,jspsych-0.3a-mobile,1,List1,2024-04-29,2,0,projectseed-iowa-production,0.0-0.0-2.0-0.38,eng,6e64b31c6348ac9d094febdaa4fdb26e97e83af1,True,adolescent,340.0,844,390,844,390,63e16b92-d768-4f4e-9b23-1236db17f48c,63e16b92-d768-4f4e-9b23-1236db17f48c,projectseed_production_april2024,1,,79180,154,html-button-response,"Mozilla/5.0 (iPhone; CPU iPhone OS 17_4_1 like Mac OS X) AppleWebKit/605.1.15 (KHTML, like Gecko) Version/17.4.1 Mobile/15E148 Safari/604.1",,1665,980,-100.0,100.0,50.0,50.0,79391.00000000001,D,340.0,79731.00000000001,39.0,0.0,3.0,1300.0,50.0,
0,1234,-999999,0,0,IowaTask-v2.0,-mobile,jspsych-0.3a-mobile,1,List1,2024-04-29,2,0,projectseed-iowa-production,0.0-0.0-2.0-0.39,eng,6e64b31c6348ac9d094febdaa4fdb26e97e83af1,True,adolescent,195.0,844,390,844,390,63e16b92-d768-4f4e-9b23-1236db17f48c,63e16b92-d768-4f4e-9b23-1236db17f48c,projectseed_production_april2024,1,,80727,158,html-button-response,"Mozilla/5.0 (iPhone; CPU iPhone OS 17_4_1 like Mac OS X) AppleWebKit/605.1.15 (KHTML, like Gecko) Version/17.4.1 Mobile/15E148 Safari/604.1",,1665,980,-100.0,100.0,50.0,-200.0,81083.0,D,195.0,81278.0,40.0,-250.0,3.0,1100.0,-200.0,
0,1234,-999999,0,0,IowaTask-v2.0,-mobile,jspsych-0.3a-mobile,1,List1,2024-04-29,2,0,projectseed-iowa-production,0.0-0.0-2.0-0.40,eng,6e64b31c6348ac9d094febdaa4fdb26e97e83af1,True,adolescent,902.0,844,390,844,390,63e16b92-d768-4f4e-9b23-1236db17f48c,63e16b92-d768-4f4e-9b23-1236db17f48c,projectseed_production_april2024,1,,83982,162,html-button-response,"Mozilla/5.0 (iPhone; CPU iPhone OS 17_4_1 like Mac OS X) AppleWebKit/605.1.15 (KHTML, like Gecko) Version/17.4.1 Mobile/15E148 Safari/604.1",,1665,980,-100.0,100.0,50.0,50.0,83631.0,C,902.0,84533.0,41.0,0.0,2.0,1150.0,50.0,
0,1234,-999999,0,0,IowaTask-v2.0,-mobile,jspsych-0.3a-mobile,1,List1,2024-04-29,2,0,projectseed-iowa-production,0.0-0.0-2.0-0.41,eng,6e64b31c6348ac9d094febdaa4fdb26e97e83af1,True,adolescent,470.0,844,390,844,390,63e16b92-d768-4f4e-9b23-1236db17f48c,63e16b92-d768-4f4e-9b23-1236db17f48c,projectseed_production_april2024,1,,85802,166,html-button-response,"Mozilla/5.0 (iPhone; CPU iPhone OS 17_4_1 like Mac OS X) AppleWebKit/605.1.15 (KHTML, like Gecko) Version/17.4.1 Mobile/15E148 Safari/604.1",,1665,980,-100.0,100.0,25.0,50.0,85883.00000000001,C,470.0,86353.00000000001,42.0,-25.0,2.0,1175.0,25.0,
0,1234,-999999,0,0,IowaTask-v2.0,-mobile,jspsych-0.3a-mobile,1,List1,2024-04-29,2,0,projectseed-iowa-production,0.0-0.0-2.0-0.42,eng,6e64b31c6348ac9d094febdaa4fdb26e97e83af1,True,adolescent,483.0,844,390,844,390,63e16b92-d768-4f4e-9b23-1236db17f48c,63e16b92-d768-4f4e-9b23-1236db17f48c,projectseed_production_april2024,1,,88637,170,html-button-response,"Mozilla/5.0 (iPhone; CPU iPhone OS 17_4_1 like Mac OS X) AppleWebKit/605.1.15 (KHTML, like Gecko) Version/17.4.1 Mobile/15E148 Safari/604.1",,1665,980,-100.0,100.0,-25.0,50.0,88705.0,B,483.0,89188.0,43.0,0.0,1.0,1275.0,100.0,
0,1234,-999999,0,0,IowaTask-v2.0,-mobile,jspsych-0.3a-mobile,1,List1,2024-04-29,2,0,projectseed-iowa-production,0.0-0.0-2.0-0.43,eng,6e64b31c6348ac9d094febdaa4fdb26e97e83af1,True,adolescent,427.0,844,390,844,390,63e16b92-d768-4f4e-9b23-1236db17f48c,63e16b92-d768-4f4e-9b23-1236db17f48c,projectseed_production_april2024,1,,90422,174,html-button-response,"Mozilla/5.0 (iPhone; CPU iPhone OS 17_4_1 like Mac OS X) AppleWebKit/605.1.15 (KHTML, like Gecko) Version/17.4.1 Mobile/15E148 Safari/604.1",,1665,980,-100.0,100.0,-25.0,50.0,90547.0,D,427.0,90974.0,44.0,0.0,3.0,1325.0,50.0,
0,1234,-999999,0,0,IowaTask-v2.0,-mobile,jspsych-0.3a-mobile,1,List1,2024-04-29,2,0,projectseed-iowa-production,0.0-0.0-2.0-0.44,eng,6e64b31c6348ac9d094febdaa4fdb26e97e83af1,True,adolescent,228.0,844,390,844,390,63e16b92-d768-4f4e-9b23-1236db17f48c,63e16b92-d768-4f4e-9b23-1236db17f48c,projectseed_production_april2024,1,,92004,178,html-button-response,"Mozilla/5.0 (iPhone; CPU iPhone OS 17_4_1 like Mac OS X) AppleWebKit/605.1.15 (KHTML, like Gecko) Version/17.4.1 Mobile/15E148 Safari/604.1",,1665,980,-100.0,100.0,-25.0,50.0,92327.0,B,228.0,92555.0,45.0,0.0,1.0,1425.0,100.0,
0,1234,-999999,0,0,IowaTask-v2.0,-mobile,jspsych-0.3a-mobile,1,List1,2024-04-29,2,0,projectseed-iowa-production,0.0-0.0-2.0-0.45,eng,6e64b31c6348ac9d094febdaa4fdb26e97e83af1,True,adolescent,262.0,844,390,844,390,63e16b92-d768-4f4e-9b23-1236db17f48c,63e16b92-d768-4f4e-9b23-1236db17f48c,projectseed_production_april2024,1,,93617,182,html-button-response,"Mozilla/5.0 (iPhone; CPU iPhone OS 17_4_1 like Mac OS X) AppleWebKit/605.1.15 (KHTML, like Gecko) Version/17.4.1 Mobile/15E148 Safari/604.1",,1665,980,-100.0,100.0,-25.0,50.0,93906.0,D,262.0,94168.0,46.0,0.0,3.0,1475.0,50.0,
0,1234,-999999,0,0,IowaTask-v2.0,-mobile,jspsych-0.3a-mobile,1,List1,2024-04-29,2,0,projectseed-iowa-production,0.0-0.0-2.0-0.46,eng,6e64b31c6348ac9d094febdaa4fdb26e97e83af1,True,adolescent,172.0,844,390,844,390,63e16b92-d768-4f4e-9b23-1236db17f48c,63e16b92-d768-4f4e-9b23-1236db17f48c,projectseed_production_april2024,1,,95135,186,html-button-response,"Mozilla/5.0 (iPhone; CPU iPhone OS 17_4_1 like Mac OS X) AppleWebKit/605.1.15 (KHTML, like Gecko) Version/17.4.1 Mobile/15E148 Safari/604.1",,1665,980,-100.0,100.0,-25.0,50.0,95515.0,D,172.0,95687.0,47.0,0.0,3.0,1525.0,50.0,
0,1234,-999999,0,0,IowaTask-v2.0,-mobile,jspsych-0.3a-mobile,1,List1,2024-04-29,2,0,projectseed-iowa-production,0.0-0.0-2.0-0.47,eng,6e64b31c6348ac9d094febdaa4fdb26e97e83af1,True,adolescent,99.0,844,390,844,390,63e16b92-d768-4f4e-9b23-1236db17f48c,63e16b92-d768-4f4e-9b23-1236db17f48c,projectseed_production_april2024,1,,96587,190,html-button-response,"Mozilla/5.0 (iPhone; CPU iPhone OS 17_4_1 like Mac OS X) AppleWebKit/605.1.15 (KHTML, like Gecko) Version/17.4.1 Mobile/15E148 Safari/604.1",,1665,980,-100.0,100.0,-25.0,50.0,97040.0,B,99.0,97139.0,48.0,0.0,1.0,1625.0,100.0,
0,1234,-999999,0,0,IowaTask-v2.0,-mobile,jspsych-0.3a-mobile,1,List1,2024-04-29,2,0,projectseed-iowa-production,0.0-0.0-2.0-0.48,eng,6e64b31c6348ac9d094febdaa4fdb26e97e83af1,True,adolescent,34.0,844,390,844,390,63e16b92-d768-4f4e-9b23-1236db17f48c,63e16b92-d768-4f4e-9b23-1236db17f48c,projectseed_production_april2024,1,,97972,194,html-button-response,"Mozilla/5.0 (iPhone; CPU iPhone OS 17_4_1 like Mac OS X) AppleWebKit/605.1.15 (KHTML, like Gecko) Version/17.4.1 Mobile/15E148 Safari/604.1",,1665,980,-100.0,100.0,-25.0,50.0,98490.0,B,34.0,98524.0,49.0,0.0,1.0,1725.0,100.0,
0,1234,-999999,0,0,IowaTask-v2.0,-mobile,jspsych-0.3a-mobile,1,List1,2024-04-29,2,0,projectseed-iowa-production,0.0-0.0-2.0-0.49,eng,6e64b31c6348ac9d094febdaa4fdb26e97e83af1,True,adolescent,689.0,844,390,844,390,63e16b92-d768-4f4e-9b23-1236db17f48c,63e16b92-d768-4f4e-9b23-1236db17f48c,projectseed_production_april2024,1,,100005,198,html-button-response,"Mozilla/5.0 (iPhone; CPU iPhone OS 17_4_1 like Mac OS X) AppleWebKit/605.1.15 (KHTML, like Gecko) Version/17.4.1 Mobile/15E148 Safari/604.1",,1665,980,-100.0,100.0,-25.0,50.0,99867.0,D,689.0,100556.0,50.0,0.0,3.0,1775.0,50.0,
0,1234,-999999,0,0,IowaTask-v2.0,-mobile,jspsych-0.3a-mobile,1,List1,2024-04-29,2,0,projectseed-iowa-production,0.0-0.0-2.0-0.50,eng,6e64b31c6348ac9d094febdaa4fdb26e97e83af1,True,adolescent,103.0,844,390,844,390,63e16b92-d768-4f4e-9b23-1236db17f48c,63e16b92-d768-4f4e-9b23-1236db17f48c,projectseed_production_april2024,1,,101458,202,html-button-response,"Mozilla/5.0 (iPhone; CPU iPhone OS 17_4_1 like Mac OS X) AppleWebKit/605.1.15 (KHTML, like Gecko) Version/17.4.1 Mobile/15E148 Safari/604.1",,1665,980,-100.0,100.0,-25.0,50.0,101906.0,B,103.0,102009.0,51.0,0.0,1.0,1875.0,100.0,
0,1234,-999999,0,0,IowaTask-v2.0,-mobile,jspsych-0.3a-mobile,1,List1,2024-04-29,2,0,projectseed-iowa-production,0.0-0.0-2.0-0.51,eng,6e64b31c6348ac9d094febdaa4fdb26e97e83af1,True,adolescent,421.0,844,390,844,390,63e16b92-d768-4f4e-9b23-1236db17f48c,63e16b92-d768-4f4e-9b23-1236db17f48c,projectseed_production_april2024,1,,103231,206,html-button-response,"Mozilla/5.0 (iPhone; CPU iPhone OS 17_4_1 like Mac OS X) AppleWebKit/605.1.15 (KHTML, like Gecko) Version/17.4.1 Mobile/15E148 Safari/604.1",,1665,980,-100.0,100.0,-25.0,50.0,103362.0,B,421.0,103783.0,52.0,0.0,1.0,1975.0,100.0,
0,1234,-999999,0,0,IowaTask-v2.0,-mobile,jspsych-0.3a-mobile,1,List1,2024-04-29,2,0,projectseed-iowa-production,0.0-0.0-2.0-0.52,eng,6e64b31c6348ac9d094febdaa4fdb26e97e83af1,True,adolescent,93.0,844,390,844,390,63e16b92-d768-4f4e-9b23-1236db17f48c,63e16b92-d768-4f4e-9b23-1236db17f48c,projectseed_production_april2024,1,,104675,210,html-button-response,"Mozilla/5.0 (iPhone; CPU iPhone OS 17_4_1 like Mac OS X) AppleWebKit/605.1.15 (KHTML, like Gecko) Version/17.4.1 Mobile/15E148 Safari/604.1",,1665,980,-100.0,100.0,-25.0,50.0,105133.0,B,93.0,105226.0,53.0,0.0,1.0,2075.0,100.0,
0,1234,-999999,0,0,IowaTask-v2.0,-mobile,jspsych-0.3a-mobile,1,List1,2024-04-29,2,0,projectseed-iowa-production,0.0-0.0-2.0-0.53,eng,6e64b31c6348ac9d094febdaa4fdb26e97e83af1,True,adolescent,139.0,844,390,844,390,63e16b92-d768-4f4e-9b23-1236db17f48c,63e16b92-d768-4f4e-9b23-1236db17f48c,projectseed_production_april2024,1,,106176,214,html-button-response,"Mozilla/5.0 (iPhone; CPU iPhone OS 17_4_1 like Mac OS X) AppleWebKit/605.1.15 (KHTML, like Gecko) Version/17.4.1 Mobile/15E148 Safari/604.1",,1665,980,-100.0,100.0,-25.0,50.0,106588.0,B,139.0,106727.0,54.0,0.0,1.0,2175.0,100.0,
0,1234,-999999,0,0,IowaTask-v2.0,-mobile,jspsych-0.3a-mobile,1,List1,2024-04-29,2,0,projectseed-iowa-production,0.0-0.0-2.0-0.54,eng,6e64b31c6348ac9d094febdaa4fdb26e97e83af1,True,adolescent,320.0,844,390,844,390,63e16b92-d768-4f4e-9b23-1236db17f48c,63e16b92-d768-4f4e-9b23-1236db17f48c,projectseed_production_april2024,1,,107850,218,html-button-response,"Mozilla/5.0 (iPhone; CPU iPhone OS 17_4_1 like Mac OS X) AppleWebKit/605.1.15 (KHTML, like Gecko) Version/17.4.1 Mobile/15E148 Safari/604.1",,1665,980,-100.0,100.0,-25.0,50.0,108082.0,A,320.0,108402.0,55.0,-200.0,0.0,2075.0,-100.0,
0,1234,-999999,0,0,IowaTask-v2.0,-mobile,jspsych-0.3a-mobile,1,List1,2024-04-29,2,0,projectseed-iowa-production,0.0-0.0-2.0-0.55,eng,6e64b31c6348ac9d094febdaa4fdb26e97e83af1,True,adolescent,361.0,844,390,844,390,63e16b92-d768-4f4e-9b23-1236db17f48c,63e16b92-d768-4f4e-9b23-1236db17f48c,projectseed_production_april2024,1,,110565,222,html-button-response,"Mozilla/5.0 (iPhone; CPU iPhone OS 17_4_1 like Mac OS X) AppleWebKit/605.1.15 (KHTML, like Gecko) Version/17.4.1 Mobile/15E148 Safari/604.1",,1665,980,100.0,100.0,-25.0,50.0,110755.0,B,361.0,111116.0,56.0,0.0,1.0,2175.0,100.0,
0,1234,-999999,0,0,IowaTask-v2.0,-mobile,jspsych-0.3a-mobile,1,List1,2024-04-29,2,0,projectseed-iowa-production,0.0-0.0-2.0-0.56,eng,6e64b31c6348ac9d094febdaa4fdb26e97e83af1,True,adolescent,211.0,844,390,844,390,63e16b92-d768-4f4e-9b23-1236db17f48c,63e16b92-d768-4f4e-9b23-1236db17f48c,projectseed_production_april2024,1,,112131,226,html-button-response,"Mozilla/5.0 (iPhone; CPU iPhone OS 17_4_1 like Mac OS X) AppleWebKit/605.1.15 (KHTML, like Gecko) Version/17.4.1 Mobile/15E148 Safari/604.1",,1665,980,100.0,100.0,-25.0,50.0,112472.0,B,211.0,112683.0,57.0,0.0,1.0,2275.0,100.0,
0,1234,-999999,0,0,IowaTask-v2.0,-mobile,jspsych-0.3a-mobile,1,List1,2024-04-29,2,0,projectseed-iowa-production,0.0-0.0-2.0-0.57,eng,6e64b31c6348ac9d094febdaa4fdb26e97e83af1,True,adolescent,451.0,844,390,844,390,63e16b92-d768-4f4e-9b23-1236db17f48c,63e16b92-d768-4f4e-9b23-1236db17f48c,projectseed_production_april2024,1,,113934,230,html-button-response,"Mozilla/5.0 (iPhone; CPU iPhone OS 17_4_1 like Mac OS X) AppleWebKit/605.1.15 (KHTML, like Gecko) Version/17.4.1 Mobile/15E148 Safari/604.1",,1665,980,100.0,100.0,-25.0,50.0,114035.0,D,451.0,114486.0,58.0,0.0,3.0,2325.0,50.0,
0,1234,-999999,0,0,IowaTask-v2.0,-mobile,jspsych-0.3a-mobile,1,List1,2024-04-29,2,0,projectseed-iowa-production,0.0-0.0-2.0-0.58,eng,6e64b31c6348ac9d094febdaa4fdb26e97e83af1,True,adolescent,184.0,844,390,844,390,63e16b92-d768-4f4e-9b23-1236db17f48c,63e16b92-d768-4f4e-9b23-1236db17f48c,projectseed_production_april2024,1,,115468,234,html-button-response,"Mozilla/5.0 (iPhone; CPU iPhone OS 17_4_1 like Mac OS X) AppleWebKit/605.1.15 (KHTML, like Gecko) Version/17.4.1 Mobile/15E148 Safari/604.1",,1665,980,100.0,100.0,-25.0,50.0,115836.0,D,184.0,116020.0,59.0,0.0,3.0,2375.0,50.0,
0,1234,-999999,0,0,IowaTask-v2.0,-mobile,jspsych-0.3a-mobile,1,List1,2024-04-29,2,0,projectseed-iowa-production,0.0-0.0-2.0-0.59,eng,6e64b31c6348ac9d094febdaa4fdb26e97e83af1,True,adolescent,217.0,844,390,844,390,63e16b92-d768-4f4e-9b23-1236db17f48c,63e16b92-d768-4f4e-9b23-1236db17f48c,projectseed_production_april2024,1,,117037,238,html-button-response,"Mozilla/5.0 (iPhone; CPU iPhone OS 17_4_1 like Mac OS X) AppleWebKit/605.1.15 (KHTML, like Gecko) Version/17.4.1 Mobile/15E148 Safari/604.1",,1665,980,100.0,100.0,-25.0,-200.0,117372.0,D,217.0,117589.0,60.0,-250.0,3.0,2175.0,-200.0,
0,1234,-999999,0,0,IowaTask-v2.0,-mobile,jspsych-0.3a-mobile,1,List1,2024-04-29,2,0,projectseed-iowa-production,0.0-0.0-2.0-0.60,eng,6e64b31c6348ac9d094febdaa4fdb26e97e83af1,True,adolescent,36.0,844,390,844,390,63e16b92-d768-4f4e-9b23-1236db17f48c,63e16b92-d768-4f4e-9b23-1236db17f48c,projectseed_production_april2024,1,,119420,242,html-button-response,"Mozilla/5.0 (iPhone; CPU iPhone OS 17_4_1 like Mac OS X) AppleWebKit/605.1.15 (KHTML, like Gecko) Version/17.4.1 Mobile/15E148 Safari/604.1",,1665,980,100.0,100.0,-25.0,50.0,119936.00000000001,A,36.0,119972.00000000001,61.0,0.0,0.0,2275.0,100.0,
0,1234,-999999,0,0,IowaTask-v2.0,-mobile,jspsych-0.3a-mobile,1,List1,2024-04-29,2,0,projectseed-iowa-production,0.0-0.0-2.0-0.61,eng,6e64b31c6348ac9d094febdaa4fdb26e97e83af1,True,adolescent,470.0,844,390,844,390,63e16b92-d768-4f4e-9b23-1236db17f48c,63e16b92-d768-4f4e-9b23-1236db17f48c,projectseed_production_april2024,1,,121245,246,html-button-response,"Mozilla/5.0 (iPhone; CPU iPhone OS 17_4_1 like Mac OS X) AppleWebKit/605.1.15 (KHTML, like Gecko) Version/17.4.1 Mobile/15E148 Safari/604.1",,1665,980,-250.0,100.0,-25.0,50.0,121327.0,A,470.0,121797.0,62.0,-350.0,0.0,2025.0,-250.0,
0,1234,-999999,0,0,IowaTask-v2.0,-mobile,jspsych-0.3a-mobile,1,List1,2024-04-29,2,0,projectseed-iowa-production,0.0-0.0-2.0-0.62,eng,6e64b31c6348ac9d094febdaa4fdb26e97e83af1,True,adolescent,160.0,844,390,844,390,63e16b92-d768-4f4e-9b23-1236db17f48c,63e16b92-d768-4f4e-9b23-1236db17f48c,projectseed_production_april2024,1,,123757,250,html-button-response,"Mozilla/5.0 (iPhone; CPU iPhone OS 17_4_1 like Mac OS X) AppleWebKit/605.1.15 (KHTML, like Gecko) Version/17.4.1 Mobile/15E148 Safari/604.1",,1665,980,-150.0,100.0,-25.0,50.0,124149.0,D,160.0,124309.0,63.0,0.0,3.0,2075.0,50.0,
0,1234,-999999,0,0,IowaTask-v2.0,-mobile,jspsych-0.3a-mobile,1,List1,2024-04-29,2,0,projectseed-iowa-production,0.0-0.0-2.0-0.63,eng,6e64b31c6348ac9d094febdaa4fdb26e97e83af1,True,adolescent,232.0,844,390,844,390,63e16b92-d768-4f4e-9b23-1236db17f48c,63e16b92-d768-4f4e-9b23-1236db17f48c,projectseed_production_april2024,1,,125340,254,html-button-response,"Mozilla/5.0 (iPhone; CPU iPhone OS 17_4_1 like Mac OS X) AppleWebKit/605.1.15 (KHTML, like Gecko) Version/17.4.1 Mobile/15E148 Safari/604.1",,1665,980,-150.0,100.0,-25.0,50.0,125660.0,B,232.0,125892.0,64.0,0.0,1.0,2175.0,100.0,
0,1234,-999999,0,0,IowaTask-v2.0,-mobile,jspsych-0.3a-mobile,1,List1,2024-04-29,2,0,projectseed-iowa-production,0.0-0.0-2.0-0.64,eng,6e64b31c6348ac9d094febdaa4fdb26e97e83af1,True,adolescent,286.0,844,390,844,390,63e16b92-d768-4f4e-9b23-1236db17f48c,63e16b92-d768-4f4e-9b23-1236db17f48c,projectseed_production_april2024,1,,126978,258,html-button-response,"Mozilla/5.0 (iPhone; CPU iPhone OS 17_4_1 like Mac OS X) AppleWebKit/605.1.15 (KHTML, like Gecko) Version/17.4.1 Mobile/15E148 Safari/604.1",,1665,980,-150.0,-1150.0,-25.0,50.0,127244.0,D,286.0,127530.0,65.0,0.0,3.0,2225.0,50.0,
0,1234,-999999,0,0,IowaTask-v2.0,-mobile,jspsych-0.3a-mobile,1,List1,2024-04-29,2,0,projectseed-iowa-production,0.0-0.0-2.0-0.65,eng,6e64b31c6348ac9d094febdaa4fdb26e97e83af1,True,adolescent,423.0,844,390,844,390,63e16b92-d768-4f4e-9b23-1236db17f48c,63e16b92-d768-4f4e-9b23-1236db17f48c,projectseed_production_april2024,1,,128753,262,html-button-response,"Mozilla/5.0 (iPhone; CPU iPhone OS 17_4_1 like Mac OS X) AppleWebKit/605.1.15 (KHTML, like Gecko) Version/17.4.1 Mobile/15E148 Safari/604.1",,1665,980,-150.0,-1150.0,-25.0,50.0,128882.0,B,423.0,129305.0,66.0,-1250.0,1.0,1075.0,-1150.0,
0,1234,-999999,0,0,IowaTask-v2.0,-mobile,jspsych-0.3a-mobile,1,List1,2024-04-29,2,0,projectseed-iowa-production,0.0-0.0-2.0-0.66,eng,6e64b31c6348ac9d094febdaa4fdb26e97e83af1,True,adolescent,259.0,844,390,844,390,63e16b92-d768-4f4e-9b23-1236db17f48c,63e16b92-d768-4f4e-9b23-1236db17f48c,projectseed_production_april2024,1,,131361,266,html-button-response,"Mozilla/5.0 (iPhone; CPU iPhone OS 17_4_1 like Mac OS X) AppleWebKit/605.1.15 (KHTML, like Gecko) Version/17.4.1 Mobile/15E148 Safari/604.1",,1665,980,-150.0,100.0,-25.0,50.0,131654.0,D,259.0,131913.0,67.0,0.0,3.0,1125.0,50.0,
0,1234,-999999,0,0,IowaTask-v2.0,-mobile,jspsych-0.3a-mobile,1,List1,2024-04-29,2,0,projectseed-iowa-production,0.0-0.0-2.0-0.67,eng,6e64b31c6348ac9d094febdaa4fdb26e97e83af1,True,adolescent,387.0,844,390,844,390,63e16b92-d768-4f4e-9b23-1236db17f48c,63e16b92-d768-4f4e-9b23-1236db17f48c,projectseed_production_april2024,1,,133097,270,html-button-response,"Mozilla/5.0 (iPhone; CPU iPhone OS 17_4_1 like Mac OS X) AppleWebKit/605.1.15 (KHTML, like Gecko) Version/17.4.1 Mobile/15E148 Safari/604.1",,1665,980,-150.0,100.0,-25.0,50.0,133262.0,B,387.0,133649.0,68.0,0.0,1.0,1225.0,100.0,
0,1234,-999999,0,0,IowaTask-v2.0,-mobile,jspsych-0.3a-mobile,1,List1,2024-04-29,2,0,projectseed-iowa-production,0.0-0.0-2.0-0.68,eng,6e64b31c6348ac9d094febdaa4fdb26e97e83af1,True,adolescent,235.0,844,390,844,390,63e16b92-d768-4f4e-9b23-1236db17f48c,63e16b92-d768-4f4e-9b23-1236db17f48c,projectseed_production_april2024,1,,134683,274,html-button-response,"Mozilla/5.0 (iPhone; CPU iPhone OS 17_4_1 like Mac OS X) AppleWebKit/605.1.15 (KHTML, like Gecko) Version/17.4.1 Mobile/15E148 Safari/604.1",,1665,980,-150.0,100.0,-25.0,50.0,135000.0,D,235.0,135235.0,69.0,0.0,3.0,1275.0,50.0,
0,1234,-999999,0,0,IowaTask-v2.0,-mobile,jspsych-0.3a-mobile,1,List1,2024-04-29,2,0,projectseed-iowa-production,0.0-0.0-2.0-0.69,eng,6e64b31c6348ac9d094febdaa4fdb26e97e83af1,True,adolescent,332.0,844,390,844,390,63e16b92-d768-4f4e-9b23-1236db17f48c,63e16b92-d768-4f4e-9b23-1236db17f48c,projectseed_production_april2024,1,,136361,278,html-button-response,"Mozilla/5.0 (iPhone; CPU iPhone OS 17_4_1 like Mac OS X) AppleWebKit/605.1.15 (KHTML, like Gecko) Version/17.4.1 Mobile/15E148 Safari/604.1",,1665,980,-150.0,100.0,-25.0,50.0,136582.00000000003,D,332.0,136914.00000000003,70.0,0.0,3.0,1325.0,50.0,
