Deck_ACC,Deck_CRESP,Deck_DurationError,Deck_OnsetDelay,Deck_OnsetToOnsetTime,ExperimentName,ExperimentPlatform,ExperimentVersion,List1_Cycle,Running,cycle_start_date,day,expected_trial_count,experiment_name,internal_node_id,lang,last_commit,on_mobile,role,rt,screen_availHeight,screen_availWidth,screen_height,screen_width,session_id,session_uuid,study_id,subject_id,task_section,time_elapsed,trial_index,trial_type,useragent,view_history,window_innerHeight,window_innerWidth,DeckA,DeckB,DeckC,DeckD,Deck_OnsetTime,Deck_RESP,Deck_RT,Deck_RTTime,List1_Sample,loss_event,response,totalsum,var,stimulus
0,1234,-999999,0,0,IowaTask-v2.0,-mobile,jspsych-0.3a-mobile,1,List1,2024-04-29,0,0,projectseed-iowa-production,0.0-0.0-2.0-0.0,eng,6e64b31c6348ac9d094febdaa4fdb26e97e83af1,True,adolescent,2577.0,844,390,844,390,981eb31a-25ec-4262-870f-20061e400ac7,981eb31a-25ec-4262-870f-20061e400ac7,projectseed_production_april2024,3,,105983,2,html-button-response,"Mozilla/5.0 (iPhone; CPU iPhone OS 17_4 like Mac OS X) AppleWebKit/605.1.15 (KHTML, like Gecko) CriOS/124.0.6367.88 Mobile/15E148 Safari/604.1",,1681,980,100.0,100.0,50.0,50.0,103791.00000000001,A,2577.0,106368.00000000001,1.0,0.0,0.0,2100.0,100.0,
0,1234,-999999,0,0,IowaTask-v2.0,-mobile,jspsych-0.3a-mobile,1,List1,2024-04-29,0,0,projectseed-iowa-production,0.0-0.0-2.0-0.1,eng,6e64b31c6348ac9d094febdaa4fdb26e97e83af1,True,adolescent,2690.0,844,390,844,390,981eb31a-25ec-4262-870f-20061e400ac7,981eb31a-25ec-4262-870f-20061e400ac7,projectseed_production_april2024,3,,109991,6,html-button-response,"Mozilla/5.0 (iPhone; CPU iPhone OS 17_4 like Mac OS X) AppleWebKit/605.1.15 (KHTML, like Gecko) CriOS/124.0.6367.88 Mobile/15E148 Safari/604.1",,1681,980,-250.0,100.0,50.0,50.0,107685.0,A,2690.0,110375.0,2.0,-350.0,0.0,1850.0,-250.0,
0,1234,-999999,0,0,IowaTask-v2.0,-mobile,jspsych-0.3a-mobile,1,List1,2024-04-29,0,0,projectseed-iowa-production,0.0-0.0-2.0-0.2,eng,6e64b31c6348ac9d094febdaa4fdb26e97e83af1,True,adolescent,2486.0,844,390,844,390,981eb31a-25ec-4262-870f-20061e400ac7,981eb31a-25ec-4262-870f-20061e400ac7,projectseed_production_april2024,3,,114791,10,html-button-response,"Mozilla/5.0 (iPhone; CPU iPhone OS 17_4 like Mac OS X) AppleWebKit/605.1.15 (KHTML, like Gecko) CriOS/124.0.6367.88 Mobile/15E148 Safari/604.1",,1681,980,-200.0,100.0,50.0,50.0,112693.0,A,2486.0,115179.0,3.0,-300.0,0.0,1650.0,-200.0,
0,1234,-999999,0,0,IowaTask-v2.0,-mobile,jspsych-0.3a-mobile,1,List1,2024-04-29,0,0,projectseed-iowa-production,0.0-0.0-2.0-0.3,eng,6e64b31c6348ac9d094febdaa4fdb26e97e83af1,True,adolescent,3718.0,844,390,844,390,981eb31a-25ec-4262-870f-20061e400ac7,981eb31a-25ec-4262-870f-20061e400ac7,projectseed_production_april2024,3,,120826,14,html-button-response,"Mozilla/5.0 (iPhone; CPU iPhone OS 17_4 like Mac OS X) AppleWebKit/605.1.15 (KHTML, like Gecko) CriOS/124.0.6367.88 Mobile/15E148 Safari/604.1",,1681,980,100.0,100.0,50.0,50.0,117493.0,D,3718.0,121211.0,4.0,0.0,3.0,1700.0,50.0,
0,1234,-999999,0,0,IowaTask-v2.0,-mobile,jspsych-0.3a-mobile,1,List1,2024-04-29,0,0,projectseed-iowa-production,0.0-0.0-2.0-0.4,eng,6e64b31c6348ac9d094febdaa4fdb26e97e83af1,True,adolescent,1466.0,844,390,844,390,981eb31a-25ec-4262-870f-20061e400ac7,981eb31a-25ec-4262-870f-20061e400ac7,projectseed_production_april2024,3,,123605,18,html-button-response,"Mozilla/5.0 (iPhone; CPU iPhone OS 17_4 like Mac OS X) AppleWebKit/605.1.15 (KHTML, like Gecko) CriOS/124.0.6367.88 Mobile/15E148 Safari/604.1",,1681,980,100.0,100.0,50.0,50.0,122524.00000000001,B,1466.0,123990.00000000001,5.0,0.0,1.0,1800.0,100.0,
0,1234,-999999,0,0,IowaTask-v2.0,-mobile,jspsych-0.3a-mobile,1,List1,2024-04-29,0,0,projectseed-iowa-production,0.0-0.0-2.0-0.5,eng,6e64b31c6348ac9d094febdaa4fdb26e97e83af1,True,adolescent,953.0,844,390,844,390,981eb31a-25ec-4262-870f-20061e400ac7,981eb31a-25ec-4262-870f-20061e400ac7,projectseed_production_april2024,3,,125874,22,html-button-response,"Mozilla/5.0 (iPhone; CPU iPhone OS 17_4 like Mac OS X) AppleWebKit/605.1.15 (KHTML, like Gecko) CriOS/124.0.6367.88 Mobile/15E148 Safari/604.1",,1681,980,100.0,100.0,50.0,50.0,125306.0,C,953.0,126259.0,6.0,0.0,2.0,1850.0,50.0,
0,1234,-999999,0,0,IowaTask-v2.0,-mobile,jspsych-0.3a-mobile,1,List1,2024-04-29,0,0,projectseed-iowa-production,0.0-0.0-2.0-0.6,eng,6e64b31c6348ac9d094febdaa4fdb26e97e83af1,True,adolescent,2500.0,844,390,844,390,981eb31a-25ec-4262-870f-20061e400ac7,981eb31a-25ec-4262-870f-20061e400ac7,projectseed_production_april2024,3,,129691,26,html-button-response,"Mozilla/5.0 (iPhone; CPU iPhone OS 17_4 like Mac OS X) AppleWebKit/605.1.15 (KHTML, like Gecko) CriOS/124.0.6367.88 Mobile/15E148 Safari/604.1",,1681,980,100.0,100.0,0.0,50.0,127574.99999999999,A,2500.0,130074.99999999999,7.0,0.0,0.0,1950.0,100.0,
0,1234,-999999,0,0,IowaTask-v2.0,-mobile,jspsych-0.3a-mobile,1,List1,2024-04-29,0,0,projectseed-iowa-production,0.0-0.0-2.0-0.7,eng,6e64b31c6348ac9d094febdaa4fdb26e97e83af1,True,adolescent,1458.0,844,390,844,390,981eb31a-25ec-4262-870f-20061e400ac7,981eb31a-25ec-4262-870f-20061e400ac7,projectseed_production_april2024,3,,132460,30,html-button-response,"Mozilla/5.0 (iPhone; CPU iPhone OS 17_4 like Mac OS X) AppleWebKit/605.1.15 (KHTML, like Gecko) CriOS/124.0.6367.88 Mobile/15E148 Safari/604.1",,1681,980,-100.0,100.0,0.0,50.0,131389.0,B,1458.0,132847.0,8.0,0.0,1.0,2050.0,100.0,
0,1234,-999999,0,0,IowaTask-v2.0,-mobile,jspsych-0.3a-mobile,1,List1,2024-04-29,0,0,projectseed-iowa-production,0.0-0.0-2.0-0.8,eng,6e64b31c6348ac9d094febdaa4fdb26e97e83af1,True,adolescent,747.0,844,390,844,390,981eb31a-25ec-4262-870f-20061e400ac7,981eb31a-25ec-4262-870f-20061e400ac7,projectseed_production_april2024,3,,134527,34,html-button-response,"Mozilla/5.0 (iPhone; CPU iPhone OS 17_4 like Mac OS X) AppleWebKit/605.1.15 (KHTML, like Gecko) CriOS/124.0.6367.88 Mobile/15E148 Safari/604.1",,1681,980,-100.0,100.0,0.0,50.0,134164.0,D,747.0,134911.0,9.0,0.0,3.0,2100.0,50.0,
0,1234,-999999,0,0,IowaTask-v2.0,-mobile,jspsych-0.3a-mobile,1,List1,2024-04-29,0,0,projectseed-iowa-production,0.0-0.0-2.0-0.9,eng,6e64b31c6348ac9d094febdaa4fdb26e97e83af1,True,adolescent,516.0,844,390,844,390,981eb31a-25ec-4262-870f-20061e400ac7,981eb31a-25ec-4262-870f-20061e400ac7,projectseed_production_april2024,3,,136356,38,html-button-response,"Mozilla/5.0 (iPhone; CPU iPhone OS 17_4 like Mac OS X) AppleWebKit/605.1.15 (KHTML, like Gecko) CriOS/124.0.6367.88 Mobile/15E148 Safari/604.1",,1681,980,-100.0,100.0,0.0,50.0,136224.0,C,516.0,136740.0,10.0,-50.0,2.0,2100.0,0.0,
0,1234,-999999,0,0,IowaTask-v2.0,-mobile,jspsych-0.3a-mobile,1,List1,2024-04-29,0,0,projectseed-iowa-production,0.0-0.0-2.0-0.10,eng,6e64b31c6348ac9d094febdaa4fdb26e97e83af1,True,adolescent,504.0,844,390,844,390,981eb31a-25ec-4262-870f-20061e400ac7,981eb31a-25ec-4262-870f-20061e400ac7,projectseed_production_april2024,3,,139173,42,html-button-response,"Mozilla/5.0 (iPhone; CPU iPhone OS 17_4 like Mac OS X) AppleWebKit/605.1.15 (KHTML, like Gecko) CriOS/124.0.6367.88 Mobile/15E148 Safari/604.1",,1681,980,-100.0,100.0,-25.0,50.0,139053.00000000003,D,504.0,139557.00000000003,11.0,0.0,3.0,2150.0,50.0,
0,1234,-999999,0,0,IowaTask-v2.0,-mobile,jspsych-0.3a-mobile,1,List1,2024-04-29,0,0,projectseed-iowa-production,0.0-0.0-2.0-0.11,eng,6e64b31c6348ac9d094febdaa4fdb26e97e83af1,True,adolescent,1125.0,844,390,844,390,981eb31a-25ec-4262-870f-20061e400ac7,981eb31a-25ec-4262-870f-20061e400ac7,projectseed_production_april2024,3,,141611,46,html-button-response,"Mozilla/5.0 (iPhone; CPU iPhone OS 17_4 like Mac OS X) AppleWebKit/605.1.15 (KHTML, like Gecko) CriOS/124.0.6367.88 Mobile/15E148 Safari/604.1",,1681,980,-100.0,100.0,-25.0,50.0,140870.0,D,1125.0,141995.0,12.0,0.0,3.0,2200.0,50.0,
0,1234,-999999,0,0,IowaTask-v2.0,-mobile,jspsych-0.3a-mobile,1,List1,2024-04-29,0,0,projectseed-iowa-production,0.0-0.0-2.0-0.12,eng,6e64b31c6348ac9d094febdaa4fdb26e97e83af1,True,adolescent,1174.0,844,390,844,390,981eb31a-25ec-4262-870f-20061e400ac7,981eb31a-25ec-4262-870f-20061e400ac7,projectseed_production_april2024,3,,144097,50,html-button-response,"Mozilla/5.0 (iPhone; CPU iPhone OS 17_4 like Mac OS X) AppleWebKit/605.1.15 (KHTML, like Gecko) CriOS/124.0.6367.88 Mobile/15E148 Safari/604.1",,1681,980,-100.0,100.0,-25.0,-200.0,143307.0,D,1174.0,144481.0,13.0,-250.0,3.0,2000.0,-200.0,
0,1234,-999999,0,0,IowaTask-v2.0,-mobile,jspsych-0.3a-mobile,1,List1,2024-04-29,0,0,projectseed-iowa-production,0.0-0.0-2.0-0.13,eng,6e64b31c6348ac9d094febdaa4fdb26e97e83af1,True,adolescent,756.0,844,390,844,390,981eb31a-25ec-4262-870f-20061e400ac7,981eb31a-25ec-4262-870f-20061e400ac7,projectseed_production_april2024,3,,147164,54,html-button-response,"Mozilla/5.0 (iPhone; CPU iPhone OS 17_4 like Mac OS X) AppleWebKit/605.1.15 (KHTML, like Gecko) CriOS/124.0.6367.88 Mobile/15E148 Safari/604.1",,1681,980,-100.0,100.0,-25.0,50.0,146792.0,A,756.0,147548.0,14.0,-200.0,0.0,1900.0,-100.0,
0,1234,-999999,0,0,IowaTask-v2.0,-mobile,jspsych-0.3a-mobile,1,List1,2024-04-29,0,0,projectseed-iowa-production,0.0-0.0-2.0-0.14,eng,6e64b31c6348ac9d094febdaa4fdb26e97e83af1,True,adolescent,616.0,844,390,844,390,981eb31a-25ec-4262-870f-20061e400ac7,981eb31a-25ec-4262-870f-20061e400ac7,projectseed_production_april2024,3,,150100,58,html-button-response,"Mozilla/5.0 (iPhone; CPU iPhone OS 17_4 like Mac OS X) AppleWebKit/605.1.15 (KHTML, like Gecko) CriOS/124.0.6367.88 Mobile/15E148 Safari/604.1",,1681,980,100.0,100.0,-25.0,50.0,149868.0,A,616.0,150484.0,15.0,0.0,0.0,2000.0,100.0,
0,1234,-999999,0,0,IowaTask-v2.0,-mobile,jspsych-0.3a-mobile,1,List1,2024-04-29,0,0,projectseed-iowa-production,0.0-0.0-2.0-0.15,eng,6e64b31c6348ac9d094febdaa4fdb26e97e83af1,True,adolescent,2188.0,844,390,844,390,981eb31a-25ec-4262-870f-20061e400ac7,981eb31a-25ec-4262-870f-20061e400ac7,projectseed_production_april2024,3,,153600,62,html-button-response,"Mozilla/5.0 (iPhone; CPU iPhone OS 17_4 like Mac OS X) AppleWebKit/605.1.15 (KHTML, like Gecko) CriOS/124.0.6367.88 Mobile/15E148 Safari/604.1",,1681,980,-150.0,100.0,-25.0,50.0,151796.0,A,2188.0,153984.0,16.0,-250.0,0.0,1850.0,-150.0,
0,1234,-999999,0,0,IowaTask-v2.0,-mobile,jspsych-0.3a-mobile,1,List1,2024-04-29,0,0,projectseed-iowa-production,0.0-0.0-2.0-0.16,eng,6e64b31c6348ac9d094febdaa4fdb26e97e83af1,True,adolescent,624.0,844,390,844,390,981eb31a-25ec-4262-870f-20061e400ac7,981eb31a-25ec-4262-870f-20061e400ac7,projectseed_production_april2024,3,,156535,66,html-button-response,"Mozilla/5.0 (iPhone; CPU iPhone OS 17_4 like Mac OS X) AppleWebKit/605.1.15 (KHTML, like Gecko) CriOS/124.0.6367.88 Mobile/15E148 Safari/604.1",,1681,980,100.0,100.0,-25.0,50.0,156295.0,B,624.0,156919.0,17.0,0.0,1.0,1950.0,100.0,
0,1234,-999999,0,0,IowaTask-v2.0,-mobile,jspsych-0.3a-mobile,1,List1,2024-04-29,0,0,projectseed-iowa-production,0.0-0.0-2.0-0.17,eng,6e64b31c6348ac9d094febdaa4fdb26e97e83af1,True,adolescent,972.0,844,390,844,390,981eb31a-25ec-4262-870f-20061e400ac7,981eb31a-25ec-4262-870f-20061e400ac7,projectseed_production_april2024,3,,158818,70,html-button-response,"Mozilla/5.0 (iPhone; CPU iPhone OS 17_4 like Mac OS X) AppleWebKit/605.1.15 (KHTML, like Gecko) CriOS/124.0.6367.88 Mobile/15E148 Safari/604.1",,1681,980,100.0,100.0,-25.0,50.0,158230.0,B,972.0,159202.0,18.0,0.0,1.0,2050.0,100.0,
0,1234,-999999,0,0,IowaTask-v2.0,-mobile,jspsych-0.3a-mobile,1,List1,2024-04-29,0,0,projectseed-iowa-production,0.0-0.0-2.0-0.18,eng,6e64b31c6348ac9d094febdaa4fdb26e97e83af1,True,adolescent,860.0,844,390,844,390,981eb31a-25ec-4262-870f-20061e400ac7,981eb31a-25ec-4262-870f-20061e400ac7,projectseed_production_april2024,3,,160989,74,html-button-response,"Mozilla/5.0 (iPhone; CPU iPhone OS 17_4 like Mac OS X) AppleWebKit/605.1.15 (KHTML, like Gecko) CriOS/124.0.6367.88 Mobile/15E148 Safari/604.1",,1681,980,100.0,100.0,-25.0,50.0,160513.0,D,860.0,161373.0,19.0,0.0,3.0,2100.0,50.0,
0,1234,-999999,0,0,IowaTask-v2.0,-mobile,jspsych-0.3a-mobile,1,List1,2024-04-29,0,0,projectseed-iowa-production,0.0-0.0-2.0-0.19,eng,6e64b31c6348ac9d094febdaa4fdb26e97e83af1,True,adolescent,621.0,844,390,844,390,981eb31a-25ec-4262-870f-20061e400ac7,981eb31a-25ec-4262-870f-20061e400ac7,projectseed_production_april2024,3,,162921,78,html-button-response,"Mozilla/5.0 (iPhone; CPU iPhone OS 17_4 like Mac OS X) AppleWebKit/605.1.15 (KHTML, like Gecko) CriOS/124.0.6367.88 Mobile/15E148 Safari/604.1",,1681,980,100.0,100.0,-25.0,50.0,162683.0,D,621.0,163304.0,20.0,0.0,3.0,2150.0,50.0,
0,1234,-999999,0,0,IowaTask-v2.0,-mobile,jspsych-0.3a-mobile,1,List1,2024-04-29,0,0,projectseed-iowa-production,0.0-0.0-2.0-0.20,eng,6e64b31c6348ac9d094febdaa4fdb26e97e83af1,True,adolescent,1660.0,844,390,844,390,981eb31a-25ec-4262-870f-20061e400ac7,981eb31a-25ec-4262-870f-20061e400ac7,projectseed_production_april2024,3,,165892,82,html-button-response,"Mozilla/5.0 (iPhone; CPU iPhone OS 17_4 like Mac OS X) AppleWebKit/605.1.15 (KHTML, like Gecko) CriOS/124.0.6367.88 Mobile/15E148 Safari/604.1",,1681,980,100.0,100.0,-25.0,50.0,164615.0,C,1660.0,166275.0,21.0,-75.0,2.0,2125.0,-25.0,
0,1234,-999999,0,0,IowaTask-v2.0,-mobile,jspsych-0.3a-mobile,1,List1,2024-04-29,0,0,projectseed-iowa-production,0.0-0.0-2.0-0.21,eng,6e64b31c6348ac9d094febdaa4fdb26e97e83af1,True,adolescent,990.0,844,390,844,390,981eb31a-25ec-4262-870f-20061e400ac7,981eb31a-25ec-4262-870f-20061e400ac7,projectseed_production_april2024,3,,169194,86,html-button-response,"Mozilla/5.0 (iPhone; CPU iPhone OS 17_4 like Mac OS X) AppleWebKit/605.1.15 (KHTML, like Gecko) CriOS/124.0.6367.88 Mobile/15E148 Safari/604.1",,1681,980,100.0,100.0,-25.0,50.0,168587.0,D,990.0,169577.0,22.0,0.0,3.0,2175.0,50.0,
0,1234,-999999,0,0,IowaTask-v2.0,-mobile,jspsych-0.3a-mobile,1,List1,2024-04-29,0,0,projectseed-iowa-production,0.0-0.0-2.0-0.22,eng,6e64b31c6348ac9d094febdaa4fdb26e97e83af1,True,adolescent,755.0,844,390,844,390,981eb31a-25ec-4262-870f-20061e400ac7,981eb31a-25ec-4262-870f-20061e400ac7,projectseed_production_april2024,3,,171261,90,html-button-response,"Mozilla/5.0 (iPhone; CPU iPhone OS 17_4 like Mac OS X) AppleWebKit/605.1.15 (KHTML, like Gecko) CriOS/124.0.6367.88 Mobile/15E148 Safari/604.1",,1681,980,100.0,100.0,-25.0,50.0,170889.0,B,755.0,171644.0,23.0,0.0,1.0,2275.0,100.0,
0,1234,-999999,0,0,IowaTask-v2.0,-mobile,jspsych-0.3a-mobile,1,List1,2024-04-29,0,0,projectseed-iowa-production,0.0-0.0-2.0-0.23,eng,6e64b31c6348ac9d094febdaa4fdb26e97e83af1,True,adolescent,1043.0,844,390,844,390,981eb31a-25ec-4262-870f-20061e400ac7,981eb31a-25ec-4262-870f-20061e400ac7,projectseed_production_april2024,3,,173614,94,html-button-response,"Mozilla/5.0 (iPhone; CPU iPhone OS 17_4 like Mac OS X) AppleWebKit/605.1.15 (KHTML, like Gecko) CriOS/124.0.6367.88 Mobile/15E148 Safari/604.1",,1681,980,100.0,100.0,-25.0,50.0,172954.0,A,1043.0,173997.0,24.0,0.0,0.0,2375.0,100.0,
0,1234,-999999,0,0,IowaTask-v2.0,-mobile,jspsych-0.3a-mobile,1,List1,2024-04-29,0,0,projectseed-iowa-production,0.0-0.0-2.0-0.24,eng,6e64b31c6348ac9d094febdaa4fdb26e97e83af1,True,adolescent,2107.0,844,390,844,390,981eb31a-25ec-4262-870f-20061e400ac7,981eb31a-25ec-4262-870f-20061e400ac7,projectseed_production_april2024,3,,177033,98,html-button-response,"Mozilla/5.0 (iPhone; CPU iPhone OS 17_4 like Mac OS X) AppleWebKit/605.1.15 (KHTML, like Gecko) CriOS/124.0.6367.88 Mobile/15E148 Safari/604.1",,1681,980,100.0,100.0,-25.0,50.0,175309.0,D,2107.0,177416.0,25.0,0.0,3.0,2425.0,50.0,
0,1234,-999999,0,0,IowaTask-v2.0,-mobile,jspsych-0.3a-mobile,1,List1,2024-04-29,0,0,projectseed-iowa-production,0.0-0.0-2.0-0.25,eng,6e64b31c6348ac9d094febdaa4fdb26e97e83af1,True,adolescent,1341.0,844,390,844,390,981eb31a-25ec-4262-870f-20061e400ac7,981eb31a-25ec-4262-870f-20061e400ac7,projectseed_production_april2024,3,,179686,102,html-button-response,"Mozilla/5.0 (iPhone; CPU iPhone OS 17_4 like Mac OS X) AppleWebKit/605.1.15 (KHTML, like Gecko) CriOS/124.0.6367.88 Mobile/15E148 Safari/604.1",,1681,980,100.0,100.0,-25.0,50.0,178728.00000000003,B,1341.0,180069.00000000003,26.0,0.0,1.0,2525.0,100.0,
0,1234,-999999,0,0,IowaTask-v2.0,-mobile,jspsych-0.3a-mobile,1,List1,2024-04-29,0,0,projectseed-iowa-production,0.0-0.0-2.0-0.26,eng,6e64b31c6348ac9d094febdaa4fdb26e97e83af1,True,adolescent,855.0,844,390,844,390,981eb31a-25ec-4262-870f-20061e400ac7,981eb31a-25ec-4262-870f-20061e400ac7,projectseed_production_april2024,3,,181852,106,html-button-response,"Mozilla/5.0 (iPhone; CPU iPhone OS 17_4 like Mac OS X) AppleWebKit/605.1.15 (KHTML, like Gecko) CriOS/124.0.6367.88 Mobile/15E148 Safari/604.1",,1681,980,100.0,100.0,-25.0,50.0,181381.0,A,855.0,182236.0,27.0,0.0,0.0,2625.0,100.0,
0,1234,-999999,0,0,IowaTask-v2.0,-mobile,jspsych-0.3a-mobile,1,List1,2024-04-29,0,0,projectseed-iowa-production,0.0-0.0-2.0-0.27,eng,6e64b31c6348ac9d094febdaa4fdb26e97e83af1,True,adolescent,1810.0,844,390,844,390,981eb31a-25ec-4262-870f-20061e400ac7,981eb31a-25ec-4262-870f-20061e400ac7,projectseed_production_april2024,3,,184973,110,html-button-response,"Mozilla/5.0 (iPhone; CPU iPhone OS 17_4 like Mac OS X) AppleWebKit/605.1.15 (KHTML, like Gecko) CriOS/124.0.6367.88 Mobile/15E148 Safari/604.1",,1681,980,-50.0,100.0,-25.0,50.0,183546.0,D,1810.0,185356.0,28.0,0.0,3.0,2675.0,50.0,
0,1234,-999999,0,0,IowaTask-v2.0,-mobile,jspsych-0.3a-mobile,1,List1,2024-04-29,0,0,projectseed-iowa-production,0.0-0.0-2.0-0.28,eng,6e64b31c6348ac9d094febdaa4fdb26e97e83af1,True,adolescent,1874.0,844,390,844,390,981eb31a-25ec-4262-870f-20061e400ac7,981eb31a-25ec-4262-870f-20061e400ac7,projectseed_production_april2024,3,,188159,114,html-button-response,"Mozilla/5.0 (iPhone; CPU iPhone OS 17_4 like Mac OS X) AppleWebKit/605.1.15 (KHTML, like Gecko) CriOS/124.0.6367.88 Mobile/15E148 Safari/604.1",,1681,980,-50.0,100.0,-25.0,50.0,186668.0,D,1874.0,188542.0,29.0,0.0,3.0,2725.0,50.0,
0,1234,-999999,0,0,IowaTask-v2.0,-mobile,jspsych-0.3a-mobile,1,List1,2024-04-29,0,0,projectseed-iowa-production,0.0-0.0-2.0-0.29,eng,6e64b31c6348ac9d094febdaa4fdb26e97e83af1,True,adolescent,872.0,844,390,844,390,981eb31a-25ec-4262-870f-20061e400ac7,981eb31a-25ec-4262-870f-20061e400ac7,projectseed_production_april2024,3,,190342,118,html-button-response,"Mozilla/5.0 (iPhone; CPU iPhone OS 17_4 like Mac OS X) AppleWebKit/605.1.15 (KHTML, like Gecko) CriOS/124.0.6367.88 Mobile/15E148 Safari/604.1",,1681,980,-50.0,100.0,-25.0,50.0,189853.0,B,872.0,190725.0,30.0,0.0,1.0,2825.0,100.0,
0,1234,-999999,0,0,IowaTask-v2.0,-mobile,jspsych-0.3a-mobile,1,List1,2024-04-29,0,0,projectseed-iowa-production,0.0-0.0-2.0-0.30,eng,6e64b31c6348ac9d094febdaa4fdb26e97e83af1,True,adolescent,657.0,844,390,844,390,981eb31a-25ec-4262-870f-20061e400ac7,981eb31a-25ec-4262-870f-20061e400ac7,projectseed_production_april2024,3,,192310,122,html-button-response,"Mozilla/5.0 (iPhone; CPU iPhone OS 17_4 like Mac OS X) AppleWebKit/605.1.15 (KHTML, like Gecko) CriOS/124.0.6367.88 Mobile/15E148 Safari/604.1",,1681,980,-50.0,100.0,-25.0,50.0,192035.0,A,657.0,192692.0,31.0,-150.0,0.0,2775.0,-50.0,
0,1234,-999999,0,0,IowaTask-v2.0,-mobile,jspsych-0.3a-mobile,1,List1,2024-04-29,0,0,projectseed-iowa-production,0.0-0.0-2.0-0.31,eng,6e64b31c6348ac9d094febdaa4fdb26e97e83af1,True,adolescent,659.0,844,390,844,390,981eb31a-25ec-4262-870f-20061e400ac7,981eb31a-25ec-4262-870f-20061e400ac7,projectseed_production_april2024,3,,195279,126,html-button-response,"Mozilla/5.0 (iPhone; CPU iPhone OS 17_4 like Mac OS X) AppleWebKit/605.1.15 (KHTML, like Gecko) CriOS/124.0.6367.88 Mobile/15E148 Safari/604.1",,1681,980,-200.0,100.0,-25.0,50.0,195003.0,C,659.0,195662.0,32.0,-75.0,2.0,2750.0,-25.0,
0,1234,-999999,0,0,IowaTask-v2.0,-mobile,jspsych-0.3a-mobile,1,List1,2024-04-29,0,0,projectseed-iowa-production,0.0-0.0-2.0-0.32,eng,6e64b31c6348ac9d094febdaa4fdb26e97e83af1,True,adolescent,603.0,844,390,844,390,981eb31a-25ec-4262-870f-20061e400ac7,981eb31a-25ec-4262-870f-20061e400ac7,projectseed_production_april2024,3,,198193,130,html-button-response,"Mozilla/5.0 (iPhone; CPU iPhone OS 17_4 like Mac OS X) AppleWebKit/605.1.15 (KHTML, like Gecko) CriOS/124.0.6367.88 Mobile/15E148 Safari/604.1",,1681,980,-200.0,100.0,50.0,50.0,197973.0,C,603.0,198576.0,33.0,0.0,2.0,2800.0,50.0,
0,1234,-999999,0,0,IowaTask-v2.0,-mobile,jspsych-0.3a-mobile,1,List1,2024-04-29,0,0,projectseed-iowa-production,0.0-0.0-2.0-0.33,eng,6e64b31c6348ac9d094febdaa4fdb26e97e83af1,True,adolescent,1137.0,844,390,844,390,981eb31a-25ec-4262-870f-20061e400ac7,981eb31a-25ec-4262-870f-20061e400ac7,projectseed_production_april2024,3,,200642,134,html-button-response,"Mozilla/5.0 (iPhone; CPU iPhone OS 17_4 like Mac OS X) AppleWebKit/605.1.15 (KHTML, like Gecko) CriOS/124.0.6367.88 Mobile/15E148 Safari/604.1",,1681,980,-200.0,100.0,50.0,50.0,199888.0,A,1137.0,201025.0,34.0,-300.0,0.0,2600.0,-200.0,
0,1234,-999999,0,0,IowaTask-v2.0,-mobile,jspsych-0.3a-mobile,1,List1,2024-04-29,0,0,projectseed-iowa-production,0.0-0.0-2.0-0.34,eng,6e64b31c6348ac9d094febdaa4fdb26e97e83af1,True,adolescent,674.0,844,390,844,390,981eb31a-25ec-4262-870f-20061e400ac7,981eb31a-25ec-4262-870f-20061e400ac7,projectseed_production_april2024,3,,203628,138,html-button-response,"Mozilla/5.0 (iPhone; CPU iPhone OS 17_4 like Mac OS X) AppleWebKit/605.1.15 (KHTML, like Gecko) CriOS/124.0.6367.88 Mobile/15E148 Safari/604.1",,1681,980,100.0,100.0,50.0,50.0,203337.0,A,674.0,204011.0,35.0,0.0,0.0,2700.0,100.0,
0,1234,-999999,0,0,IowaTask-v2.0,-mobile,jspsych-0.3a-mobile,1,List1,2024-04-29,0,0,projectseed-iowa-production,0.0-0.0-2.0-0.35,eng,6e64b31c6348ac9d094febdaa4fdb26e97e83af1,True,adolescent,1592.0,844,390,844,390,981eb31a-25ec-4262-870f-20061e400ac7,981eb31a-25ec-4262-870f-20061e400ac7,projectseed_production_april2024,3,,206532,142,html-button-response,"Mozilla/5.0 (iPhone; CPU iPhone OS 17_4 like Mac OS X) AppleWebKit/605.1.15 (KHTML, like Gecko) CriOS/124.0.6367.88 Mobile/15E148 Safari/604.1",,1681,980,100.0,100.0,50.0,50.0,205323.0,A,1592.0,206915.0,36.0,0.0,0.0,2800.0,100.0,
0,1234,-999999,0,0,IowaTask-v2.0,-mobile,jspsych-0.3a-mobile,1,List1,2024-04-29,0,0,projectseed-iowa-production,0.0-0.0-2.0-0.36,eng,6e64b31c6348ac9d094febdaa4fdb26e97e83af1,True,adolescent,1824.0,844,390,844,390,981eb31a-25ec-4262-870f-20061e400ac7,981eb31a-25ec-4262-870f-20061e400ac7,projectseed_production_april2024,3,,209668,146,html-button-response,"Mozilla/5.0 (iPhone; CPU iPhone OS 17_4 like Mac OS X) AppleWebKit/605.1.15 (KHTML, like Gecko) CriOS/124.0.6367.88 Mobile/15E148 Safari/604.1",,1681,980,100.0,100.0,50.0,50.0,208227.00000000003,A,1824.0,210051.00000000003,37.0,0.0,0.0,2900.0,100.0,
0,1234,-999999,0,0,IowaTask-v2.0,-mobile,jspsych-0.3a-mobile,1,List1,2024-04-29,0,0,projectseed-iowa-production,0.0-0.0-2.0-0.37,eng,6e64b31c6348ac9d094febdaa4fdb26e97e83af1,True,adolescent,2103.0,844,390,844,390,981eb31a-25ec-4262-870f-20061e400ac7,981eb31a-25ec-4262-870f-20061e400ac7,projectseed_production_april2024,3,,213082,150,html-button-response,"Mozilla/5.0 (iPhone; CPU iPhone OS 17_4 like Mac OS X) AppleWebKit/605.1.15 (KHTML, like Gecko) CriOS/124.0.6367.88 Mobile/15E148 Safari/604.1",,1681,980,-250.0,100.0,50.0,50.0,211361.0,A,2103.0,213464.0,38.0,-350.0,0.0,2650.0,-250.0,
0,1234,-999999,0,0,IowaTask-v2.0,-mobile,jspsych-0.3a-mobile,1,List1,2024-04-29,0,0,projectseed-iowa-production,0.0-0.0-2.0-0.38,eng,6e64b31c6348ac9d094febdaa4fdb26e97e83af1,True,adolescent,609.0,844,390,844,390,981eb31a-25ec-4262-870f-20061e400ac7,981eb31a-25ec-4262-870f-20061e400ac7,projectseed_production_april2024,3,,216002,154,html-button-response,"Mozilla/5.0 (iPhone; CPU iPhone OS 17_4 like Mac OS X) AppleWebKit/605.1.15 (KHTML, like Gecko) CriOS/124.0.6367.88 Mobile/15E148 Safari/604.1",,1681,980,-100.0,100.0,50.0,50.0,215775.0,B,609.0,216384.0,39.0,0.0,1.0,2750.0,100.0,
0,1234,-999999,0,0,IowaTask-v2.0,-mobile,jspsych-0.3a-mobile,1,List1,2024-04-29,0,0,projectseed-iowa-production,0.0-0.0-2.0-0.39,eng,6e64b31c6348ac9d094febdaa4fdb26e97e83af1,True,adolescent,808.0,844,390,844,390,981eb31a-25ec-4262-870f-20061e400ac7,981eb31a-25ec-4262-870f-20061e400ac7,projectseed_production_april2024,3,,218120,158,html-button-response,"Mozilla/5.0 (iPhone; CPU iPhone OS 17_4 like Mac OS X) AppleWebKit/605.1.15 (KHTML, like Gecko) CriOS/124.0.6367.88 Mobile/15E148 Safari/604.1",,1681,980,-100.0,-1150.0,50.0,50.0,217695.0,B,808.0,218503.0,40.0,-1250.0,1.0,1600.0,-1150.0,
0,1234,-999999,0,0,IowaTask-v2.0,-mobile,jspsych-0.3a-mobile,1,List1,2024-04-29,0,0,projectseed-iowa-production,0.0-0.0-2.0-0.40,eng,6e64b31c6348ac9d094febdaa4fdb26e97e83af1,True,adolescent,488.0,844,390,844,390,981eb31a-25ec-4262-870f-20061e400ac7,981eb31a-25ec-4262-870f-20061e400ac7,projectseed_production_april2024,3,,220919,162,html-button-response,"Mozilla/5.0 (iPhone; CPU iPhone OS 17_4 like Mac OS X) AppleWebKit/605.1.15 (KHTML, like Gecko) CriOS/124.0.6367.88 Mobile/15E148 Safari/604.1",,1681,980,-100.0,100.0,50.0,50.0,220813.00000000003,D,488.0,221301.00000000003,41.0,0.0,3.0,1650.0,50.0,
0,1234,-999999,0,0,IowaTask-v2.0,-mobile,jspsych-0.3a-mobile,1,List1,2024-04-29,0,0,projectseed-iowa-production,0.0-0.0-2.0-0.41,eng,6e64b31c6348ac9d094febdaa4fdb26e97e83af1,True,adolescent,487.0,844,390,844,390,981eb31a-25ec-4262-870f-20061e400ac7,981eb31a-25ec-4262-870f-20061e400ac7,projectseed_production_april2024,3,,222718,166,html-button-response,"Mozilla/5.0 (iPhone; CPU iPhone OS 17_4 like Mac OS X) AppleWebKit/605.1.15 (KHTML, like Gecko) CriOS/124.0.6367.88 Mobile/15E148 Safari/604.1",,1681,980,-100.0,100.0,50.0,50.0,222613.0,C,487.0,223100.0,42.0,0.0,2.0,1700.0,50.0,
0,1234,-999999,0,0,IowaTask-v2.0,-mobile,jspsych-0.3a-mobile,1,List1,2024-04-29,0,0,projectseed-iowa-production,0.0-0.0-2.0-0.42,eng,6e64b31c6348ac9d094febdaa4fdb26e97e83af1,True,adolescent,572.0,844,390,844,390,981eb31a-25ec-4262-870f-20061e400ac7,981eb31a-25ec-4262-870f-20061e400ac7,projectseed_production_april2024,3,,224601,170,html-button-response,"Mozilla/5.0 (iPhone; CPU iPhone OS 17_4 like Mac OS X) AppleWebKit/605.1.15 (KHTML, like Gecko) CriOS/124.0.6367.88 Mobile/15E148 Safari/604.1",,1681,980,-100.0,100.0,25.0,50.0,224411.0,A,572.0,224983.0,43.0,-200.0,0.0,1600.0,-100.0,
0,1234,-999999,0,0,IowaTask-v2.0,-mobile,jspsych-0.3a-mobile,1,List1,2024-04-29,0,0,projectseed-iowa-production,0.0-0.0-2.0-0.43,eng,6e64b31c6348ac9d094febdaa4fdb26e97e83af1,True,adolescent,512.0,844,390,844,390,981eb31a-25ec-4262-870f-20061e400ac7,981eb31a-25ec-4262-870f-20061e400ac7,projectseed_production_april2024,3,,227424,174,html-button-response,"Mozilla/5.0 (iPhone; CPU iPhone OS 17_4 like Mac OS X) AppleWebKit/605.1.15 (KHTML, like Gecko) CriOS/124.0.6367.88 Mobile/15E148 Safari/604.1",,1681,980,100.0,100.0,25.0,50.0,227294.0,C,512.0,227806.0,44.0,-25.0,2.0,1625.0,25.0,
0,1234,-999999,0,0,IowaTask-v2.0,-mobile,jspsych-0.3a-mobile,1,List1,2024-04-29,0,0,projectseed-iowa-production,0.0-0.0-2.0-0.44,eng,6e64b31c6348ac9d094febdaa4fdb26e97e83af1,True,adolescent,658.0,844,390,844,390,981eb31a-25ec-4262-870f-20061e400ac7,981eb31a-25ec-4262-870f-20061e400ac7,projectseed_production_april2024,3,,230393,178,html-button-response,"Mozilla/5.0 (iPhone; CPU iPhone OS 17_4 like Mac OS X) AppleWebKit/605.1.15 (KHTML, like Gecko) CriOS/124.0.6367.88 Mobile/15E148 Safari/604.1",,1681,980,100.0,100.0,25.0,50.0,230117.0,B,658.0,230775.0,45.0,0.0,1.0,1725.0,100.0,
0,1234,-999999,0,0,IowaTask-v2.0,-mobile,jspsych-0.3a-mobile,1,List1,2024-04-29,0,0,projectseed-iowa-production,0.0-0.0-2.0-0.45,eng,6e64b31c6348ac9d094febdaa4fdb26e97e83af1,True,adolescent,603.0,844,390,844,390,981eb31a-25ec-4262-870f-20061e400ac7,981eb31a-25ec-4262-870f-20061e400ac7,projectseed_production_april2024,3,,232307,182,html-button-response,"Mozilla/5.0 (iPhone; CPU iPhone OS 17_4 like Mac OS X) AppleWebKit/605.1.15 (KHTML, like Gecko) CriOS/124.0.6367.88 Mobile/15E148 Safari/604.1",,1681,980,100.0,100.0,25.0,50.0,232086.0,D,603.0,232689.0,46.0,0.0,3.0,1775.0,50.0,
0,1234,-999999,0,0,IowaTask-v2.0,-mobile,jspsych-0.3a-mobile,1,List1,2024-04-29,0,0,projectseed-iowa-production,0.0-0.0-2.0-0.46,eng,6e64b31c6348ac9d094febdaa4fdb26e97e83af1,True,adolescent,3927.0,844,390,844,390,981eb31a-25ec-4262-870f-20061e400ac7,981eb31a-25ec-4262-870f-20061e400ac7,projectseed_production_april2024,3,,237545,186,html-button-response,"Mozilla/5.0 (iPhone; CPU iPhone OS 17_4 like Mac OS X) AppleWebKit/605.1.15 (KHTML, like Gecko) CriOS/124.0.6367.88 Mobile/15E148 Safari/604.1",,1681,980,100.0,100.0,25.0,50.0,234001.0,D,3927.0,237928.0,47.0,0.0,3.0,1825.0,50.0,
0,1234,-999999,0,0,IowaTask-v2.0,-mobile,jspsych-0.3a-mobile,1,List1,2024-04-29,0,0,projectseed-iowa-production,0.0-0.0-2.0-0.47,eng,6e64b31c6348ac9d094febdaa4fdb26e97e83af1,True,adolescent,1806.0,844,390,844,390,981eb31a-25ec-4262-870f-20061e400ac7,981eb31a-25ec-4262-870f-20061e400ac7,projectseed_production_april2024,3,,240663,190,html-button-response,"Mozilla/5.0 (iPhone; CPU iPhone OS 17_4 like Mac OS X) AppleWebKit/605.1.15 (KHTML, like Gecko) CriOS/124.0.6367.88 Mobile/15E148 Safari/604.1",,1681,980,100.0,100.0,25.0,-200.0,239239.00000000003,B,1806.0,241045.00000000003,48.0,0.0,1.0,1925.0,100.0,
0,1234,-999999,0,0,IowaTask-v2.0,-mobile,jspsych-0.3a-mobile,1,List1,2024-04-29,0,0,projectseed-iowa-production,0.0-0.0-2.0-0.48,eng,6e64b31c6348ac9d094febdaa4fdb26e97e83af1,True,adolescent,3014.0,844,390,844,390,981eb31a-25ec-4262-870f-20061e400ac7,981eb31a-25ec-4262-870f-20061e400ac7,projectseed_production_april2024,3,,244993,194,html-button-response,"Mozilla/5.0 (iPhone; CPU iPhone OS 17_4 like Mac OS X) AppleWebKit/605.1.15 (KHTML, like Gecko) CriOS/124.0.6367.88 Mobile/15E148 Safari/604.1",,1681,980,100.0,100.0,25.0,-200.0,242361.0,A,3014.0,245375.0,49.0,0.0,0.0,2025.0,100.0,
0,1234,-999999,0,0,IowaTask-v2.0,-mobile,jspsych-0.3a-mobile,1,List1,2024-04-29,0,0,projectseed-iowa-production,0.0-0.0-2.0-0.49,eng,6e64b31c6348ac9d094febdaa4fdb26e97e83af1,True,adolescent,1112.0,844,390,844,390,981eb31a-25ec-4262-870f-20061e400ac7,981eb31a-25ec-4262-870f-20061e400ac7,projectseed_production_april2024,3,,247426,198,html-button-response,"Mozilla/5.0 (iPhone; CPU iPhone OS 17_4 like Mac OS X) AppleWebKit/605.1.15 (KHTML, like Gecko) CriOS/124.0.6367.88 Mobile/15E148 Safari/604.1",,1681,980,-150.0,100.0,25.0,-200.0,246696.0,C,1112.0,247808.0,50.0,-25.0,2.0,2050.0,25.0,
0,1234,-999999,0,0,IowaTask-v2.0,-mobile,jspsych-0.3a-mobile,1,List1,2024-04-29,0,0,projectseed-iowa-production,0.0-0.0-2.0-0.50,eng,6e64b31c6348ac9d094febdaa4fdb26e97e83af1,True,adolescent,1403.0,844,390,844,390,981eb31a-25ec-4262-870f-20061e400ac7,981eb31a-25ec-4262-870f-20061e400ac7,projectseed_production_april2024,3,,251142,202,html-button-response,"Mozilla/5.0 (iPhone; CPU iPhone OS 17_4 like Mac OS X) AppleWebKit/605.1.15 (KHTML, like Gecko) CriOS/124.0.6367.88 Mobile/15E148 Safari/604.1",,1681,980,-150.0,100.0,50.0,-200.0,250120.0,C,1403.0,251523.0,51.0,0.0,2.0,2100.0,50.0,
0,1234,-999999,0,0,IowaTask-v2.0,-mobile,jspsych-0.3a-mobile,1,List1,2024-04-29,0,0,projectseed-iowa-production,0.0-0.0-2.0-0.51,eng,6e64b31c6348ac9d094febdaa4fdb26e97e83af1,True,adolescent,1889.0,844,390,844,390,981eb31a-25ec-4262-870f-20061e400ac7,981eb31a-25ec-4262-870f-20061e400ac7,projectseed_production_april2024,3,,254342,206,html-button-response,"Mozilla/5.0 (iPhone; CPU iPhone OS 17_4 like Mac OS X) AppleWebKit/605.1.15 (KHTML, like Gecko) CriOS/124.0.6367.88 Mobile/15E148 Safari/604.1",,1681,980,-150.0,100.0,50.0,-200.0,252834.0,C,1889.0,254723.0,52.0,0.0,2.0,2150.0,50.0,
0,1234,-999999,0,0,IowaTask-v2.0,-mobile,jspsych-0.3a-mobile,1,List1,2024-04-29,0,0,projectseed-iowa-production,0.0-0.0-2.0-0.52,eng,6e64b31c6348ac9d094febdaa4fdb26e97e83af1,True,adolescent,14653.0,844,390,844,390,981eb31a-25ec-4262-870f-20061e400ac7,981eb31a-25ec-4262-870f-20061e400ac7,projectseed_production_april2024,3,,270310,210,html-button-response,"Mozilla/5.0 (iPhone; CPU iPhone OS 17_4 like Mac OS X) AppleWebKit/605.1.15 (KHTML, like Gecko) CriOS/124.0.6367.88 Mobile/15E148 Safari/604.1",,1681,980,-150.0,100.0,50.0,-200.0,256038.00000000006,A,14653.0,270691.00000000006,53.0,-250.0,0.0,2000.0,-150.0,
0,1234,-999999,0,0,IowaTask-v2.0,-mobile,jspsych-0.3a-mobile,1,List1,2024-04-29,0,0,projectseed-iowa-production,0.0-0.0-2.0-0.53,eng,6e64b31c6348ac9d094febdaa4fdb26e97e83af1,True,adolescent,515.0,844,390,844,390,981eb31a-25ec-4262-870f-20061e400ac7,981eb31a-25ec-4262-870f-20061e400ac7,projectseed_production_april2024,3,,273138,214,html-button-response,"Mozilla/5.0 (iPhone; CPU iPhone OS 17_4 like Mac OS X) AppleWebKit/605.1.15 (KHTML, like Gecko) CriOS/124.0.6367.88 Mobile/15E148 Safari/604.1",,1681,980,100.0,100.0,50.0,-200.0,273004.0,B,515.0,273519.0,54.0,0.0,1.0,2100.0,100.0,
0,1234,-999999,0,0,IowaTask-v2.0,-mobile,jspsych-0.3a-mobile,1,List1,2024-04-29,0,0,projectseed-iowa-production,0.0-0.0-2.0-0.54,eng,6e64b31c6348ac9d094febdaa4fdb26e97e83af1,True,adolescent,850.0,844,390,844,390,981eb31a-25ec-4262-870f-20061e400ac7,981eb31a-25ec-4262-870f-20061e400ac7,projectseed_production_april2024,3,,275300,218,html-button-response,"Mozilla/5.0 (iPhone; CPU iPhone OS 17_4 like Mac OS X) AppleWebKit/605.1.15 (KHTML, like Gecko) CriOS/124.0.6367.88 Mobile/15E148 Safari/604.1",,1681,980,100.0,100.0,50.0,-200.0,274832.0,D,850.0,275682.0,55.0,-250.0,3.0,1900.0,-200.0,
0,1234,-999999,0,0,IowaTask-v2.0,-mobile,jspsych-0.3a-mobile,1,List1,2024-04-29,0,0,projectseed-iowa-production,0.0-0.0-2.0-0.55,eng,6e64b31c6348ac9d094febdaa4fdb26e97e83af1,True,adolescent,159.0,844,390,844,390,981eb31a-25ec-4262-870f-20061e400ac7,981eb31a-25ec-4262-870f-20061e400ac7,projectseed_production_april2024,3,,277769,222,html-button-response,"Mozilla/5.0 (iPhone; CPU iPhone OS 17_4 like Mac OS X) AppleWebKit/605.1.15 (KHTML, like Gecko) CriOS/124.0.6367.88 Mobile/15E148 Safari/604.1",,1681,980,100.0,100.0,50.0,50.0,277991.00000000006,D,159.0,278150.00000000006,56.0,0.0,3.0,1950.0,50.0,
0,1234,-999999,0,0,IowaTask-v2.0,-mobile,jspsych-0.3a-mobile,1,List1,2024-04-29,0,0,projectseed-iowa-production,0.0-0.0-2.0-0.56,eng,6e64b31c6348ac9d094febdaa4fdb26e97e83af1,True,adolescent,698.0,844,390,844,390,981eb31a-25ec-4262-870f-20061e400ac7,981eb31a-25ec-4262-870f-20061e400ac7,projectseed_production_april2024,3,,279778,226,html-button-response,"Mozilla/5.0 (iPhone; CPU iPhone OS 17_4 like Mac OS X) AppleWebKit/605.1.15 (KHTML, like Gecko) CriOS/124.0.6367.88 Mobile/15E148 Safari/604.1",,1681,980,100.0,100.0,50.0,50.0,279462.0,B,698.0,280160.0,57.0,0.0,1.0,2050.0,100.0,
0,1234,-999999,0,0,IowaTask-v2.0,-mobile,jspsych-0.3a-mobile,1,List1,2024-04-29,0,0,projectseed-iowa-production,0.0-0.0-2.0-0.57,eng,6e64b31c6348ac9d094febdaa4fdb26e97e83af1,True,adolescent,820.0,844,390,844,390,981eb31a-25ec-4262-870f-20061e400ac7,981eb31a-25ec-4262-870f-20061e400ac7,projectseed_production_april2024,3,,281910,230,html-button-response,"Mozilla/5.0 (iPhone; CPU iPhone OS 17_4 like Mac OS X) AppleWebKit/605.1.15 (KHTML, like Gecko) CriOS/124.0.6367.88 Mobile/15E148 Safari/604.1",,1681,980,100.0,100.0,50.0,50.0,281471.0,B,820.0,282291.0,58.0,0.0,1.0,2150.0,100.0,
0,1234,-999999,0,0,IowaTask-v2.0,-mobile,jspsych-0.3a-mobile,1,List1,2024-04-29,0,0,projectseed-iowa-production,0.0-0.0-2.0-0.58,eng,6e64b31c6348ac9d094febdaa4fdb26e97e83af1,True,adolescent,1697.0,844,390,844,390,981eb31a-25ec-4262-870f-20061e400ac7,981eb31a-25ec-4262-870f-20061e400ac7,projectseed_production_april2024,3,,284917,234,html-button-response,"Mozilla/5.0 (iPhone; CPU iPhone OS 17_4 like Mac OS X) AppleWebKit/605.1.15 (KHTML, like Gecko) CriOS/124.0.6367.88 Mobile/15E148 Safari/604.1",,1681,980,100.0,100.0,50.0,50.0,283601.0,A,1697.0,285298.0,59.0,0.0,0.0,2250.0,100.0,
0,1234,-999999,0,0,IowaTask-v2.0,-mobile,jspsych-0.3a-mobile,1,List1,2024-04-29,0,0,projectseed-iowa-production,0.0-0.0-2.0-0.59,eng,6e64b31c6348ac9d094febdaa4fdb26e97e83af1,True,adolescent,5639.0,844,390,844,390,981eb31a-25ec-4262-870f-20061e400ac7,981eb31a-25ec-4262-870f-20061e400ac7,projectseed_production_april2024,3,,291864,238,html-button-response,"Mozilla/5.0 (iPhone; CPU iPhone OS 17_4 like Mac OS X) AppleWebKit/605.1.15 (KHTML, like Gecko) CriOS/124.0.6367.88 Mobile/15E148 Safari/604.1",,1681,980,-50.0,100.0,50.0,50.0,286607.0,A,5639.0,292246.0,60.0,-150.0,0.0,2200.0,-50.0,
0,1234,-999999,0,0,IowaTask-v2.0,-mobile,jspsych-0.3a-mobile,1,List1,2024-04-29,0,0,projectseed-iowa-production,0.0-0.0-2.0-0.60,eng,6e64b31c6348ac9d094febdaa4fdb26e97e83af1,True,adolescent,1053.0,844,390,844,390,981eb31a-25ec-4262-870f-20061e400ac7,981eb31a-25ec-4262-870f-20061e400ac7,projectseed_production_april2024,3,,295248,242,html-button-response,"Mozilla/5.0 (iPhone; CPU iPhone OS 17_4 like Mac OS X) AppleWebKit/605.1.15 (KHTML, like Gecko) CriOS/124.0.6367.88 Mobile/15E148 Safari/604.1",,1681,980,100.0,100.0,50.0,50.0,294577.0,B,1053.0,295630.0,61.0,0.0,1.0,2300.0,100.0,
0,1234,-999999,0,0,IowaTask-v2.0,-mobile,jspsych-0.3a-mobile,1,List1,2024-04-29,0,0,projectseed-iowa-production,0.0-0.0-2.0-0.61,eng,6e64b31c6348ac9d094febdaa4fdb26e97e83af1,True,adolescent,1039.0,844,390,844,390,981eb31a-25ec-4262-870f-20061e400ac7,981eb31a-25ec-4262-870f-20061e400ac7,projectseed_production_april2024,3,,297600,246,html-button-response,"Mozilla/5.0 (iPhone; CPU iPhone OS 17_4 like Mac OS X) AppleWebKit/605.1.15 (KHTML, like Gecko) CriOS/124.0.6367.88 Mobile/15E148 Safari/604.1",,1681,980,100.0,-1150.0,50.0,50.0,296942.0,D,1039.0,297981.0,62.0,0.0,3.0,2350.0,50.0,
0,1234,-999999,0,0,IowaTask-v2.0,-mobile,jspsych-0.3a-mobile,1,List1,2024-04-29,0,0,projectseed-iowa-production,0.0-0.0-2.0-0.62,eng,6e64b31c6348ac9d094febdaa4fdb26e97e83af1,True,adolescent,728.0,844,390,844,390,981eb31a-25ec-4262-870f-20061e400ac7,981eb31a-25ec-4262-870f-20061e400ac7,projectseed_production_april2024,3,,299649,250,html-button-response,"Mozilla/5.0 (iPhone; CPU iPhone OS 17_4 like Mac OS X) AppleWebKit/605.1.15 (KHTML, like Gecko) CriOS/124.0.6367.88 Mobile/15E148 Safari/604.1",,1681,980,100.0,-1150.0,50.0,50.0,299302.00000000006,C,728.0,300030.00000000006,63.0,0.0,2.0,2400.0,50.0,
0,1234,-999999,0,0,IowaTask-v2.0,-mobile,jspsych-0.3a-mobile,1,List1,2024-04-29,0,0,projectseed-iowa-production,0.0-0.0-2.0-0.63,eng,6e64b31c6348ac9d094febdaa4fdb26e97e83af1,True,adolescent,1080.0,844,390,844,390,981eb31a-25ec-4262-870f-20061e400ac7,981eb31a-25ec-4262-870f-20061e400ac7,projectseed_production_april2024,3,,302042,254,html-button-response,"Mozilla/5.0 (iPhone; CPU iPhone OS 17_4 like Mac OS X) AppleWebKit/605.1.15 (KHTML, like Gecko) CriOS/124.0.6367.88 Mobile/15E148 Safari/604.1",,1681,980,100.0,-1150.0,-25.0,50.0,301343.0,A,1080.0,302423.0,64.0,0.0,0.0,2500.0,100.0,
0,1234,-999999,0,0,IowaTask-v2.0,-mobile,jspsych-0.3a-mobile,1,List1,2024-04-29,0,0,projectseed-iowa-production,0.0-0.0-2.0-0.64,eng,6e64b31c6348ac9d094febdaa4fdb26e97e83af1,True,adolescent,1276.0,844,390,844,390,981eb31a-25ec-4262-870f-20061e400ac7,981eb31a-25ec-4262-870f-20061e400ac7,projectseed_production_april2024,3,,304631,258,html-button-response,"Mozilla/5.0 (iPhone; CPU iPhone OS 17_4 like Mac OS X) AppleWebKit/605.1.15 (KHTML, like Gecko) CriOS/124.0.6367.88 Mobile/15E148 Safari/604.1",,1681,980,100.0,-1150.0,-25.0,50.0,303736.0,A,1276.0,305012.0,65.0,0.0,0.0,2600.0,100.0,
0,1234,-999999,0,0,IowaTask-v2.0,-mobile,jspsych-0.3a-mobile,1,List1,2024-04-29,0,0,projectseed-iowa-production,0.0-0.0-2.0-0.65,eng,6e64b31c6348ac9d094febdaa4fdb26e97e83af1,True,adolescent,638.0,844,390,844,390,981eb31a-25ec-4262-870f-20061e400ac7,981eb31a-25ec-4262-870f-20061e400ac7,projectseed_production_april2024,3,,306582,262,html-button-response,"Mozilla/5.0 (iPhone; CPU iPhone OS 17_4 like Mac OS X) AppleWebKit/605.1.15 (KHTML, like Gecko) CriOS/124.0.6367.88 Mobile/15E148 Safari/604.1",,1681,980,100.0,-1150.0,-25.0,50.0,306325.0,C,638.0,306963.0,66.0,-75.0,2.0,2575.0,-25.0,
0,1234,-999999,0,0,IowaTask-v2.0,-mobile,jspsych-0.3a-mobile,1,List1,2024-04-29,0,0,projectseed-iowa-production,0.0-0.0-2.0-0.66,eng,6e64b31c6348ac9d094febdaa4fdb26e97e83af1,True,adolescent,655.0,844,390,844,390,981eb31a-25ec-4262-870f-20061e400ac7,981eb31a-25ec-4262-870f-20061e400ac7,projectseed_production_april2024,3,,309549,266,html-button-response,"Mozilla/5.0 (iPhone; CPU iPhone OS 17_4 like Mac OS X) AppleWebKit/605.1.15 (KHTML, like Gecko) CriOS/124.0.6367.88 Mobile/15E148 Safari/604.1",,1681,980,100.0,-1150.0,-25.0,50.0,309275.0,C,655.0,309930.0,67.0,-75.0,2.0,2550.0,-25.0,
0,1234,-999999,0,0,IowaTask-v2.0,-mobile,jspsych-0.3a-mobile,1,List1,2024-04-29,0,0,projectseed-iowa-production,0.0-0.0-2.0-0.67,eng,6e64b31c6348ac9d094febdaa4fdb26e97e83af1,True,adolescent,879.0,844,390,844,390,981eb31a-25ec-4262-870f-20061e400ac7,981eb31a-25ec-4262-870f-20061e400ac7,projectseed_production_april2024,3,,312739,270,html-button-response,"Mozilla/5.0 (iPhone; CPU iPhone OS 17_4 like Mac OS X) AppleWebKit/605.1.15 (KHTML, like Gecko) CriOS/124.0.6367.88 Mobile/15E148 Safari/604.1",,1681,980,100.0,-1150.0,50.0,50.0,312241.0,C,879.0,313120.0,68.0,0.0,2.0,2600.0,50.0,
0,1234,-999999,0,0,IowaTask-v2.0,-mobile,jspsych-0.3a-mobile,1,List1,2024-04-29,0,0,projectseed-iowa-production,0.0-0.0-2.0-0.68,eng,6e64b31c6348ac9d094febdaa4fdb26e97e83af1,True,adolescent,3193.0,844,390,844,390,981eb31a-25ec-4262-870f-20061e400ac7,981eb31a-25ec-4262-870f-20061e400ac7,projectseed_production_april2024,3,,317244,274,html-button-response,"Mozilla/5.0 (iPhone; CPU iPhone OS 17_4 like Mac OS X) AppleWebKit/605.1.15 (KHTML, like Gecko) CriOS/124.0.6367.88 Mobile/15E148 Safari/604.1",,1681,980,100.0,-1150.0,50.0,50.0,314432.0,D,3193.0,317625.0,69.0,0.0,3.0,2650.0,50.0,
0,1234,-999999,0,0,IowaTask-v2.0,-mobile,jspsych-0.3a-mobile,1,List1,2024-04-29,0,0,projectseed-iowa-production,0.0-0.0-2.0-0.69,eng,6e64b31c6348ac9d094febdaa4fdb26e97e83af1,True,adolescent,1434.0,844,390,844,390,981eb31a-25ec-4262-870f-20061e400ac7,981eb31a-25ec-4262-870f-20061e400ac7,projectseed_production_april2024,3,,319990,278,html-button-response,"Mozilla/5.0 (iPhone; CPU iPhone OS 17_4 like Mac OS X) AppleWebKit/605.1.15 (KHTML, like Gecko) CriOS/124.0.6367.88 Mobile/15E148 Safari/604.1",,1681,980,100.0,-1150.0,50.0,50.0,318937.0,B,1434.0,320371.0,70.0,-1250.0,1.0,1500.0,-1150.0,
0,1234,-999999,0,0,IowaTask-v2.0,-mobile,jspsych-0.3a-mobile,1,List1,2024-04-29,0,0,projectseed-iowa-production,0.0-0.0-2.0-0.70,eng,6e64b31c6348ac9d094febdaa4fdb26e97e83af1,True,adolescent,1239.0,844,390,844,390,981eb31a-25ec-4262-870f-20061e400ac7,981eb31a-25ec-4262-870f-20061e400ac7,projectseed_production_april2024,3,,323540,282,html-button-response,"Mozilla/5.0 (iPhone; CPU iPhone OS 17_4 like Mac OS X) AppleWebKit/605.1.15 (KHTML, like Gecko) CriOS/124.0.6367.88 Mobile/15E148 Safari/604.1",,1681,980,100.0,100.0,50.0,50.0,322682.0,D,1239.0,323921.0,71.0,0.0,3.0,1550.0,50.0,
0,1234,-999999,0,0,IowaTask-v2.0,-mobile,jspsych-0.3a-mobile,1,List1,2024-04-29,0,0,projectseed-iowa-production,0.0-0.0-2.0-0.71,eng,6e64b31c6348ac9d094febdaa4fdb26e97e83af1,True,adolescent,773.0,844,390,844,390,981eb31a-25ec-4262-870f-20061e400ac7,981eb31a-25ec-4262-870f-20061e400ac7,projectseed_production_april2024,3,,325625,286,html-button-response,"Mozilla/5.0 (iPhone; CPU iPhone OS 17_4 like Mac OS X) AppleWebKit/605.1.15 (KHTML, like Gecko) CriOS/124.0.6367.88 Mobile/15E148 Safari/604.1",,1681,980,100.0,100.0,50.0,50.0,325236.0,B,773.0,326009.0,72.0,0.0,1.0,1650.0,100.0,
0,1234,-999999,0,0,IowaTask-v2.0,-mobile,jspsych-0.3a-mobile,1,List1,2024-04-29,0,0,projectseed-iowa-production,0.0-0.0-2.0-0.72,eng,6e64b31c6348ac9d094febdaa4fdb26e97e83af1,True,adolescent,682.0,844,390,844,390,981eb31a-25ec-4262-870f-20061e400ac7,981eb31a-25ec-4262-870f-20061e400ac7,projectseed_production_april2024,3,,327624,290,html-button-response,"Mozilla/5.0 (iPhone; CPU iPhone OS 17_4 like Mac OS X) AppleWebKit/605.1.15 (KHTML, like Gecko) CriOS/124.0.6367.88 Mobile/15E148 Safari/604.1",,1681,980,100.0,100.0,50.0,50.0,327323.0,B,682.0,328005.0,73.0,0.0,1.0,1750.0,100.0,
0,1234,-999999,0,0,IowaTask-v2.0,-mobile,jspsych-0.3a-mobile,1,List1,2024-04-29,0,0,projectseed-iowa-production,0.0-0.0-2.0-0.73,eng,6e64b31c6348ac9d094febdaa4fdb26e97e83af1,True,adolescent,1420.0,844,390,844,390,981eb31a-25ec-4262-870f-20061e400ac7,981eb31a-25ec-4262-870f-20061e400ac7,projectseed_production_april2024,3,,330358,294,html-button-response,"Mozilla/5.0 (iPhone; CPU iPhone OS 17_4 like Mac OS X) AppleWebKit/605.1.15 (KHTML, like Gecko) CriOS/124.0.6367.88 Mobile/15E148 Safari/604.1",,1681,980,100.0,100.0,50.0,50.0,329318.0,B,1420.0,330738.0,74.0,0.0,1.0,1850.0,100.0,
0,1234,-999999,0,0,IowaTask-v2.0,-mobile,jspsych-0.3a-mobile,1,List1,2024-04-29,0,0,projectseed-iowa-production,0.0-0.0-2.0-0.74,eng,6e64b31c6348ac9d094febdaa4fdb26e97e83af1,True,adolescent,689.0,844,390,844,390,981eb31a-25ec-4262-870f-20061e400ac7,981eb31a-25ec-4262-870f-20061e400ac7,projectseed_production_april2024,3,,332358,298,html-button-response,"Mozilla/5.0 (iPhone; CPU iPhone OS 17_4 like Mac OS X) AppleWebKit/605.1.15 (KHTML, like Gecko) CriOS/124.0.6367.88 Mobile/15E148 Safari/604.1",,1681,980,100.0,100.0,50.0,50.0,332053.0,B,689.0,332742.0,75.0,0.0,1.0,1950.0,100.0,
0,1234,-999999,0,0,IowaTask-v2.0,-mobile,jspsych-0.3a-mobile,1,List1,2024-04-29,0,0,projectseed-iowa-production,0.0-0.0-2.0-0.75,eng,6e64b31c6348ac9d094febdaa4fdb26e97e83af1,True,adolescent,1205.0,844,390,844,390,981eb31a-25ec-4262-870f-20061e400ac7,981eb31a-25ec-4262-870f-20061e400ac7,projectseed_production_april2024,3,,334884,302,html-button-response,"Mozilla/5.0 (iPhone; CPU iPhone OS 17_4 like Mac OS X) AppleWebKit/605.1.15 (KHTML, like Gecko) CriOS/124.0.6367.88 Mobile/15E148 Safari/604.1",,1681,980,100.0,-1150.0,50.0,50.0,334059.0,B,1205.0,335264.0,76.0,-1250.0,1.0,800.0,-1150.0,
0,1234,-999999,0,0,IowaTask-v2.0,-mobile,jspsych-0.3a-mobile,1,List1,2024-04-29,0,0,projectseed-iowa-production,0.0-0.0-2.0-0.76,eng,6e64b31c6348ac9d094febdaa4fdb26e97e83af1,True,adolescent,1415.0,844,390,844,390,981eb31a-25ec-4262-870f-20061e400ac7,981eb31a-25ec-4262-870f-20061e400ac7,projectseed_production_april2024,3,,338612,306,html-button-response,"Mozilla/5.0 (iPhone; CPU iPhone OS 17_4 like Mac OS X) AppleWebKit/605.1.15 (KHTML, like Gecko) CriOS/124.0.6367.88 Mobile/15E148 Safari/604.1",,1681,980,100.0,100.0,50.0,50.0,337577.0,D,1415.0,338992.0,77.0,0.0,3.0,850.0,50.0,
0,1234,-999999,0,0,IowaTask-v2.0,-mobile,jspsych-0.3a-mobile,1,List1,2024-04-29,0,0,projectseed-iowa-production,0.0-0.0-2.0-0.77,eng,6e64b31c6348ac9d094febdaa4fdb26e97e83af1,True,adolescent,831.0,844,390,844,390,981eb31a-25ec-4262-870f-20061e400ac7,981eb31a-25ec-4262-870f-20061e400ac7,projectseed_production_april2024,3,,340754,310,html-button-response,"Mozilla/5.0 (iPhone; CPU iPhone OS 17_4 like Mac OS X) AppleWebKit/605.1.15 (KHTML, like Gecko) CriOS/124.0.6367.88 Mobile/15E148 Safari/604.1",,1681,980,100.0,100.0,50.0,50.0,340303.0,C,831.0,341134.0,78.0,0.0,2.0,900.0,50.0,
0,1234,-999999,0,0,IowaTask-v2.0,-mobile,jspsych-0.3a-mobile,1,List1,2024-04-29,0,0,projectseed-iowa-production,0.0-0.0-2.0-0.78,eng,6e64b31c6348ac9d094febdaa4fdb26e97e83af1,True,adolescent,526.0,844,390,844,390,981eb31a-25ec-4262-870f-20061e400ac7,981eb31a-25ec-4262-870f-20061e400ac7,projectseed_production_april2024,3,,342590,314,html-button-response,"Mozilla/5.0 (iPhone; CPU iPhone OS 17_4 like Mac OS X) AppleWebKit/605.1.15 (KHTML, like Gecko) CriOS/124.0.6367.88 Mobile/15E148 Safari/604.1",,1681,980,100.0,100.0,25.0,50.0,342444.0,A,526.0,342970.0,79.0,0.0,0.0,1000.0,100.0,
0,1234,-999999,0,0,IowaTask-v2.0,-mobile,jspsych-0.3a-mobile,1,List1,2024-04-29,0,0,projectseed-iowa-production,0.0-0.0-2.0-0.79,eng,6e64b31c6348ac9d094febdaa4fdb26e97e83af1,True,adolescent,611.0,844,390,844,390,981eb31a-25ec-4262-870f-20061e400ac7,981eb31a-25ec-4262-870f-20061e400ac7,projectseed_production_april2024,3,,344514,318,html-button-response,"Mozilla/5.0 (iPhone; CPU iPhone OS 17_4 like Mac OS X) AppleWebKit/605.1.15 (KHTML, like Gecko) CriOS/124.0.6367.88 Mobile/15E148 Safari/604.1",,1681,980,-250.0,100.0,25.0,50.0,344285.0,B,611.0,344896.0,80.0,0.0,1.0,1100.0,100.0,
0,1234,-999999,0,0,IowaTask-v2.0,-mobile,jspsych-0.3a-mobile,1,List1,2024-04-29,0,0,projectseed-iowa-production,0.0-0.0-2.0-0.80,eng,6e64b31c6348ac9d094febdaa4fdb26e97e83af1,True,adolescent,483.0,844,390,844,390,981eb31a-25ec-4262-870f-20061e400ac7,981eb31a-25ec-4262-870f-20061e400ac7,projectseed_production_april2024,3,,346311,322,html-button-response,"Mozilla/5.0 (iPhone; CPU iPhone OS 17_4 like Mac OS X) AppleWebKit/605.1.15 (KHTML, like Gecko) CriOS/124.0.6367.88 Mobile/15E148 Safari/604.1",,1681,980,-250.0,100.0,25.0,50.0,346211.0,B,483.0,346694.0,81.0,0.0,1.0,1200.0,100.0,
0,1234,-999999,0,0,IowaTask-v2.0,-mobile,jspsych-0.3a-mobile,1,List1,2024-04-29,0,0,projectseed-iowa-production,0.0-0.0-2.0-0.81,eng,6e64b31c6348ac9d094febdaa4fdb26e97e83af1,True,adolescent,737.0,844,390,844,390,981eb31a-25ec-4262-870f-20061e400ac7,981eb31a-25ec-4262-870f-20061e400ac7,projectseed_production_april2024,3,,348361,326,html-button-response,"Mozilla/5.0 (iPhone; CPU iPhone OS 17_4 like Mac OS X) AppleWebKit/605.1.15 (KHTML, like Gecko) CriOS/124.0.6367.88 Mobile/15E148 Safari/604.1",,1681,980,-250.0,100.0,25.0,50.0,348004.0,A,737.0,348741.0,82.0,-350.0,0.0,950.0,-250.0,
0,1234,-999999,0,0,IowaTask-v2.0,-mobile,jspsych-0.3a-mobile,1,List1,2024-04-29,0,0,projectseed-iowa-production,0.0-0.0-2.0-0.82,eng,6e64b31c6348ac9d094febdaa4fdb26e97e83af1,True,adolescent,758.0,844,390,844,390,981eb31a-25ec-4262-870f-20061e400ac7,981eb31a-25ec-4262-870f-20061e400ac7,projectseed_production_april2024,3,,351430,330,html-button-response,"Mozilla/5.0 (iPhone; CPU iPhone OS 17_4 like Mac OS X) AppleWebKit/605.1.15 (KHTML, like Gecko) CriOS/124.0.6367.88 Mobile/15E148 Safari/604.1",,1681,980,-200.0,100.0,25.0,50.0,351052.0,D,758.0,351810.0,83.0,0.0,3.0,1000.0,50.0,
0,1234,-999999,0,0,IowaTask-v2.0,-mobile,jspsych-0.3a-mobile,1,List1,2024-04-29,0,0,projectseed-iowa-production,0.0-0.0-2.0-0.83,eng,6e64b31c6348ac9d094febdaa4fdb26e97e83af1,True,adolescent,1142.0,844,390,844,390,981eb31a-25ec-4262-870f-20061e400ac7,981eb31a-25ec-4262-870f-20061e400ac7,projectseed_production_april2024,3,,353883,334,html-button-response,"Mozilla/5.0 (iPhone; CPU iPhone OS 17_4 like Mac OS X) AppleWebKit/605.1.15 (KHTML, like Gecko) CriOS/124.0.6367.88 Mobile/15E148 Safari/604.1",,1681,980,-200.0,100.0,25.0,50.0,353121.00000000006,C,1142.0,354263.00000000006,84.0,-25.0,2.0,1025.0,25.0,
0,1234,-999999,0,0,IowaTask-v2.0,-mobile,jspsych-0.3a-mobile,1,List1,2024-04-29,0,0,projectseed-iowa-production,0.0-0.0-2.0-0.84,eng,6e64b31c6348ac9d094febdaa4fdb26e97e83af1,True,adolescent,600.0,844,390,844,390,981eb31a-25ec-4262-870f-20061e400ac7,981eb31a-25ec-4262-870f-20061e400ac7,projectseed_production_april2024,3,,356800,338,html-button-response,"Mozilla/5.0 (iPhone; CPU iPhone OS 17_4 like Mac OS X) AppleWebKit/605.1.15 (KHTML, like Gecko) CriOS/124.0.6367.88 Mobile/15E148 Safari/604.1",,1681,980,-200.0,100.0,50.0,50.0,356580.0,D,600.0,357180.0,85.0,0.0,3.0,1075.0,50.0,
0,1234,-999999,0,0,IowaTask-v2.0,-mobile,jspsych-0.3a-mobile,1,List1,2024-04-29,0,0,projectseed-iowa-production,0.0-0.0-2.0-0.85,eng,6e64b31c6348ac9d094febdaa4fdb26e97e83af1,True,adolescent,1006.0,844,390,844,390,981eb31a-25ec-4262-870f-20061e400ac7,981eb31a-25ec-4262-870f-20061e400ac7,projectseed_production_april2024,3,,359119,342,html-button-response,"Mozilla/5.0 (iPhone; CPU iPhone OS 17_4 like Mac OS X) AppleWebKit/605.1.15 (KHTML, like Gecko) CriOS/124.0.6367.88 Mobile/15E148 Safari/604.1",,1681,980,-200.0,100.0,50.0,50.0,358493.0,D,1006.0,359499.0,86.0,0.0,3.0,1125.0,50.0,
0,1234,-999999,0,0,IowaTask-v2.0,-mobile,jspsych-0.3a-mobile,1,List1,2024-04-29,0,0,projectseed-iowa-production,0.0-0.0-2.0-0.86,eng,6e64b31c6348ac9d094febdaa4fdb26e97e83af1,True,adolescent,926.0,844,390,844,390,981eb31a-25ec-4262-870f-20061e400ac7,981eb31a-25ec-4262-870f-20061e400ac7,projectseed_production_april2024,3,,361358,346,html-button-response,"Mozilla/5.0 (iPhone; CPU iPhone OS 17_4 like Mac OS X) AppleWebKit/605.1.15 (KHTML, like Gecko) CriOS/124.0.6367.88 Mobile/15E148 Safari/604.1",,1681,980,-200.0,100.0,50.0,50.0,360812.0,D,926.0,361738.0,87.0,0.0,3.0,1175.0,50.0,
0,1234,-999999,0,0,IowaTask-v2.0,-mobile,jspsych-0.3a-mobile,1,List1,2024-04-29,0,0,projectseed-iowa-production,0.0-0.0-2.0-0.87,eng,6e64b31c6348ac9d094febdaa4fdb26e97e83af1,True,adolescent,550.0,844,390,844,390,981eb31a-25ec-4262-870f-20061e400ac7,981eb31a-25ec-4262-870f-20061e400ac7,projectseed_production_april2024,3,,363220,350,html-button-response,"Mozilla/5.0 (iPhone; CPU iPhone OS 17_4 like Mac OS X) AppleWebKit/605.1.15 (KHTML, like Gecko) CriOS/124.0.6367.88 Mobile/15E148 Safari/604.1",,1681,980,-200.0,100.0,50.0,50.0,363049.0,B,550.0,363599.0,88.0,0.0,1.0,1275.0,100.0,
0,1234,-999999,0,0,IowaTask-v2.0,-mobile,jspsych-0.3a-mobile,1,List1,2024-04-29,0,0,projectseed-iowa-production,0.0-0.0-2.0-0.88,eng,6e64b31c6348ac9d094febdaa4fdb26e97e83af1,True,adolescent,573.0,844,390,844,390,981eb31a-25ec-4262-870f-20061e400ac7,981eb31a-25ec-4262-870f-20061e400ac7,projectseed_production_april2024,3,,365104,354,html-button-response,"Mozilla/5.0 (iPhone; CPU iPhone OS 17_4 like Mac OS X) AppleWebKit/605.1.15 (KHTML, like Gecko) CriOS/124.0.6367.88 Mobile/15E148 Safari/604.1",,1681,980,-200.0,100.0,50.0,50.0,364911.0,B,573.0,365484.0,89.0,0.0,1.0,1375.0,100.0,
0,1234,-999999,0,0,IowaTask-v2.0,-mobile,jspsych-0.3a-mobile,1,List1,2024-04-29,0,0,projectseed-iowa-production,0.0-0.0-2.0-0.89,eng,6e64b31c6348ac9d094febdaa4fdb26e97e83af1,True,adolescent,724.0,844,390,844,390,981eb31a-25ec-4262-870f-20061e400ac7,981eb31a-25ec-4262-870f-20061e400ac7,projectseed_production_april2024,3,,367139,358,html-button-response,"Mozilla/5.0 (iPhone; CPU iPhone OS 17_4 like Mac OS X) AppleWebKit/605.1.15 (KHTML, like Gecko) CriOS/124.0.6367.88 Mobile/15E148 Safari/604.1",,1681,980,-200.0,100.0,50.0,50.0,366794.0,B,724.0,367518.0,90.0,0.0,1.0,1475.0,100.0,
0,1234,-999999,0,0,IowaTask-v2.0,-mobile,jspsych-0.3a-mobile,1,List1,2024-04-29,0,0,projectseed-iowa-production,0.0-0.0-2.0-0.90,eng,6e64b31c6348ac9d094febdaa4fdb26e97e83af1,True,adolescent,636.0,844,390,844,390,981eb31a-25ec-4262-870f-20061e400ac7,981eb31a-25ec-4262-870f-20061e400ac7,projectseed_production_april2024,3,,369086,362,html-button-response,"Mozilla/5.0 (iPhone; CPU iPhone OS 17_4 like Mac OS X) AppleWebKit/605.1.15 (KHTML, like Gecko) CriOS/124.0.6367.88 Mobile/15E148 Safari/604.1",,1681,980,-200.0,100.0,50.0,50.0,368830.0,A,636.0,369466.0,91.0,-300.0,0.0,1275.0,-200.0,
0,1234,-999999,0,0,IowaTask-v2.0,-mobile,jspsych-0.3a-mobile,1,List1,2024-04-29,0,0,projectseed-iowa-production,0.0-0.0-2.0-0.91,eng,6e64b31c6348ac9d094febdaa4fdb26e97e83af1,True,adolescent,991.0,844,390,844,390,981eb31a-25ec-4262-870f-20061e400ac7,981eb31a-25ec-4262-870f-20061e400ac7,projectseed_production_april2024,3,,372389,366,html-button-response,"Mozilla/5.0 (iPhone; CPU iPhone OS 17_4 like Mac OS X) AppleWebKit/605.1.15 (KHTML, like Gecko) CriOS/124.0.6367.88 Mobile/15E148 Safari/604.1",,1681,980,100.0,100.0,50.0,50.0,371777.0,C,991.0,372768.0,92.0,0.0,2.0,1325.0,50.0,
0,1234,-999999,0,0,IowaTask-v2.0,-mobile,jspsych-0.3a-mobile,1,List1,2024-04-29,0,0,projectseed-iowa-production,0.0-0.0-2.0-0.92,eng,6e64b31c6348ac9d094febdaa4fdb26e97e83af1,True,adolescent,703.0,844,390,844,390,981eb31a-25ec-4262-870f-20061e400ac7,981eb31a-25ec-4262-870f-20061e400ac7,projectseed_production_april2024,3,,374403,370,html-button-response,"Mozilla/5.0 (iPhone; CPU iPhone OS 17_4 like Mac OS X) AppleWebKit/605.1.15 (KHTML, like Gecko) CriOS/124.0.6367.88 Mobile/15E148 Safari/604.1",,1681,980,100.0,100.0,0.0,50.0,374080.0,D,703.0,374783.0,93.0,0.0,3.0,1375.0,50.0,
0,1234,-999999,0,0,IowaTask-v2.0,-mobile,jspsych-0.3a-mobile,1,List1,2024-04-29,0,0,projectseed-iowa-production,0.0-0.0-2.0-0.93,eng,6e64b31c6348ac9d094febdaa4fdb26e97e83af1,True,adolescent,2474.0,844,390,844,390,981eb31a-25ec-4262-870f-20061e400ac7,981eb31a-25ec-4262-870f-20061e400ac7,projectseed_production_april2024,3,,378188,374,html-button-response,"Mozilla/5.0 (iPhone; CPU iPhone OS 17_4 like Mac OS X) AppleWebKit/605.1.15 (KHTML, like Gecko) CriOS/124.0.6367.88 Mobile/15E148 Safari/604.1",,1681,980,100.0,100.0,0.0,50.0,376094.0,D,2474.0,378568.0,94.0,0.0,3.0,1425.0,50.0,
0,1234,-999999,0,0,IowaTask-v2.0,-mobile,jspsych-0.3a-mobile,1,List1,2024-04-29,0,0,projectseed-iowa-production,0.0-0.0-2.0-0.94,eng,6e64b31c6348ac9d094febdaa4fdb26e97e83af1,True,adolescent,1003.0,844,390,844,390,981eb31a-25ec-4262-870f-20061e400ac7,981eb31a-25ec-4262-870f-20061e400ac7,projectseed_production_april2024,3,,380501,378,html-button-response,"Mozilla/5.0 (iPhone; CPU iPhone OS 17_4 like Mac OS X) AppleWebKit/605.1.15 (KHTML, like Gecko) CriOS/124.0.6367.88 Mobile/15E148 Safari/604.1",,1681,980,100.0,100.0,0.0,50.0,379878.0,D,1003.0,380881.0,95.0,0.0,3.0,1475.0,50.0,
0,1234,-999999,0,0,IowaTask-v2.0,-mobile,jspsych-0.3a-mobile,1,List1,2024-04-29,0,0,projectseed-iowa-production,0.0-0.0-2.0-0.95,eng,6e64b31c6348ac9d094febdaa4fdb26e97e83af1,True,adolescent,2187.0,844,390,844,390,981eb31a-25ec-4262-870f-20061e400ac7,981eb31a-25ec-4262-870f-20061e400ac7,projectseed_production_april2024,3,,384004,382,html-button-response,"Mozilla/5.0 (iPhone; CPU iPhone OS 17_4 like Mac OS X) AppleWebKit/605.1.15 (KHTML, like Gecko) CriOS/124.0.6367.88 Mobile/15E148 Safari/604.1",,1681,980,100.0,100.0,0.0,-200.0,382197.0,D,2187.0,384384.0,96.0,-250.0,3.0,1275.0,-200.0,
0,1234,-999999,0,0,IowaTask-v2.0,-mobile,jspsych-0.3a-mobile,1,List1,2024-04-29,0,0,projectseed-iowa-production,0.0-0.0-2.0-0.96,eng,6e64b31c6348ac9d094febdaa4fdb26e97e83af1,True,adolescent,869.0,844,390,844,390,981eb31a-25ec-4262-870f-20061e400ac7,981eb31a-25ec-4262-870f-20061e400ac7,projectseed_production_april2024,3,,387186,386,html-button-response,"Mozilla/5.0 (iPhone; CPU iPhone OS 17_4 like Mac OS X) AppleWebKit/605.1.15 (KHTML, like Gecko) CriOS/124.0.6367.88 Mobile/15E148 Safari/604.1",,1681,980,100.0,100.0,0.0,50.0,386696.0,B,869.0,387565.0,97.0,0.0,1.0,1375.0,100.0,
0,1234,-999999,0,0,IowaTask-v2.0,-mobile,jspsych-0.3a-mobile,1,List1,2024-04-29,0,0,projectseed-iowa-production,0.0-0.0-2.0-0.97,eng,6e64b31c6348ac9d094febdaa4fdb26e97e83af1,True,adolescent,731.0,844,390,844,390,981eb31a-25ec-4262-870f-20061e400ac7,981eb31a-25ec-4262-870f-20061e400ac7,projectseed_production_april2024,3,,389226,390,html-button-response,"Mozilla/5.0 (iPhone; CPU iPhone OS 17_4 like Mac OS X) AppleWebKit/605.1.15 (KHTML, like Gecko) CriOS/124.0.6367.88 Mobile/15E148 Safari/604.1",,1681,980,100.0,100.0,0.0,50.0,388875.0,D,731.0,389606.0,98.0,0.0,3.0,1425.0,50.0,
0,1234,-999999,0,0,IowaTask-v2.0,-mobile,jspsych-0.3a-mobile,1,List1,2024-04-29,0,0,projectseed-iowa-production,0.0-0.0-2.0-0.98,eng,6e64b31c6348ac9d094febdaa4fdb26e97e83af1,True,adolescent,686.0,844,390,844,390,981eb31a-25ec-4262-870f-20061e400ac7,981eb31a-25ec-4262-870f-20061e400ac7,projectseed_production_april2024,3,,391224,394,html-button-response,"Mozilla/5.0 (iPhone; CPU iPhone OS 17_4 like Mac OS X) AppleWebKit/605.1.15 (KHTML, like Gecko) CriOS/124.0.6367.88 Mobile/15E148 Safari/604.1",,1681,980,100.0,100.0,0.0,50.0,390917.0,C,686.0,391603.0,99.0,-50.0,2.0,1425.0,0.0,
0,1234,-999999,0,0,IowaTask-v2.0,-mobile,jspsych-0.3a-mobile,1,List1,2024-04-29,0,0,projectseed-iowa-production,0.0-0.0-2.0-0.99,eng,6e64b31c6348ac9d094febdaa4fdb26e97e83af1,True,adolescent,806.0,844,390,844,390,981eb31a-25ec-4262-870f-20061e400ac7,981eb31a-25ec-4262-870f-20061e400ac7,projectseed_production_april2024,3,,394342,398,html-button-response,"Mozilla/5.0 (iPhone; CPU iPhone OS 17_4 like Mac OS X) AppleWebKit/605.1.15 (KHTML, like Gecko) CriOS/124.0.6367.88 Mobile/15E148 Safari/604.1",,1681,980,100.0,100.0,50.0,50.0,393914.0,C,806.0,394720.0,100.0,0.0,2.0,1475.0,50.0,
0,1234,-999999,0,0,IowaTask-v2.0,-mobile,jspsych-0.3a-mobile,1,List1,2024-04-29,0,0,projectseed-iowa-production,0.0-0.0-2.0-0.100,eng,6e64b31c6348ac9d094febdaa4fdb26e97e83af1,True,adolescent,1308.0,844,390,844,390,981eb31a-25ec-4262-870f-20061e400ac7,981eb31a-25ec-4262-870f-20061e400ac7,projectseed_production_april2024,3,,396960,402,html-button-response,"Mozilla/5.0 (iPhone; CPU iPhone OS 17_4 like Mac OS X) AppleWebKit/605.1.15 (KHTML, like Gecko) CriOS/124.0.6367.88 Mobile/15E148 Safari/604.1",,1681,980,100.0,100.0,25.0,50.0,396032.00000000006,B,1308.0,397340.00000000006,101.0,0.0,1.0,1575.0,100.0,
0,1234,-999999,0,0,IowaTask-v2.0,-mobile,jspsych-0.3a-mobile,1,List1,2024-04-29,0,0,projectseed-iowa-production,0.0-0.0-2.0-0.101,eng,6e64b31c6348ac9d094febdaa4fdb26e97e83af1,True,adolescent,655.0,844,390,844,390,981eb31a-25ec-4262-870f-20061e400ac7,981eb31a-25ec-4262-870f-20061e400ac7,projectseed_production_april2024,3,,398928,406,html-button-response,"Mozilla/5.0 (iPhone; CPU iPhone OS 17_4 like Mac OS X) AppleWebKit/605.1.15 (KHTML, like Gecko) CriOS/124.0.6367.88 Mobile/15E148 Safari/604.1",,1681,980,100.0,100.0,25.0,50.0,398652.0,B,655.0,399307.0,102.0,0.0,1.0,1675.0,100.0,
0,1234,-999999,0,0,IowaTask-v2.0,-mobile,jspsych-0.3a-mobile,1,List1,2024-04-29,0,0,projectseed-iowa-production,0.0-0.0-2.0-0.102,eng,6e64b31c6348ac9d094febdaa4fdb26e97e83af1,True,adolescent,705.0,844,390,844,390,981eb31a-25ec-4262-870f-20061e400ac7,981eb31a-25ec-4262-870f-20061e400ac7,projectseed_production_april2024,3,,400945,410,html-button-response,"Mozilla/5.0 (iPhone; CPU iPhone OS 17_4 like Mac OS X) AppleWebKit/605.1.15 (KHTML, like Gecko) CriOS/124.0.6367.88 Mobile/15E148 Safari/604.1",,1681,980,100.0,100.0,25.0,50.0,400619.0,B,705.0,401324.0,103.0,0.0,1.0,1775.0,100.0,
0,1234,-999999,0,0,IowaTask-v2.0,-mobile,jspsych-0.3a-mobile,1,List1,2024-04-29,0,0,projectseed-iowa-production,0.0-0.0-2.0-0.103,eng,6e64b31c6348ac9d094febdaa4fdb26e97e83af1,True,adolescent,572.0,844,390,844,390,981eb31a-25ec-4262-870f-20061e400ac7,981eb31a-25ec-4262-870f-20061e400ac7,projectseed_production_april2024,3,,402829,414,html-button-response,"Mozilla/5.0 (iPhone; CPU iPhone OS 17_4 like Mac OS X) AppleWebKit/605.1.15 (KHTML, like Gecko) CriOS/124.0.6367.88 Mobile/15E148 Safari/604.1",,1681,980,100.0,100.0,25.0,50.0,402636.0,A,572.0,403208.0,104.0,0.0,0.0,1875.0,100.0,
0,1234,-999999,0,0,IowaTask-v2.0,-mobile,jspsych-0.3a-mobile,1,List1,2024-04-29,0,0,projectseed-iowa-production,0.0-0.0-2.0-0.104,eng,6e64b31c6348ac9d094febdaa4fdb26e97e83af1,True,adolescent,668.0,844,390,844,390,981eb31a-25ec-4262-870f-20061e400ac7,981eb31a-25ec-4262-870f-20061e400ac7,projectseed_production_april2024,3,,404808,418,html-button-response,"Mozilla/5.0 (iPhone; CPU iPhone OS 17_4 like Mac OS X) AppleWebKit/605.1.15 (KHTML, like Gecko) CriOS/124.0.6367.88 Mobile/15E148 Safari/604.1",,1681,980,100.0,100.0,25.0,50.0,404519.0,A,668.0,405187.0,105.0,0.0,0.0,1975.0,100.0,
0,1234,-999999,0,0,IowaTask-v2.0,-mobile,jspsych-0.3a-mobile,1,List1,2024-04-29,0,0,projectseed-iowa-production,0.0-0.0-2.0-0.105,eng,6e64b31c6348ac9d094febdaa4fdb26e97e83af1,True,adolescent,843.0,844,390,844,390,981eb31a-25ec-4262-870f-20061e400ac7,981eb31a-25ec-4262-870f-20061e400ac7,projectseed_production_april2024,3,,406961,422,html-button-response,"Mozilla/5.0 (iPhone; CPU iPhone OS 17_4 like Mac OS X) AppleWebKit/605.1.15 (KHTML, like Gecko) CriOS/124.0.6367.88 Mobile/15E148 Safari/604.1",,1681,980,-50.0,100.0,25.0,50.0,406498.0,D,843.0,407341.0,106.0,0.0,3.0,2025.0,50.0,
0,1234,-999999,0,0,IowaTask-v2.0,-mobile,jspsych-0.3a-mobile,1,List1,2024-04-29,0,0,projectseed-iowa-production,0.0-0.0-2.0-0.106,eng,6e64b31c6348ac9d094febdaa4fdb26e97e83af1,True,adolescent,1891.0,844,390,844,390,981eb31a-25ec-4262-870f-20061e400ac7,981eb31a-25ec-4262-870f-20061e400ac7,projectseed_production_april2024,3,,410164,426,html-button-response,"Mozilla/5.0 (iPhone; CPU iPhone OS 17_4 like Mac OS X) AppleWebKit/605.1.15 (KHTML, like Gecko) CriOS/124.0.6367.88 Mobile/15E148 Safari/604.1",,1681,980,-50.0,100.0,25.0,50.0,408652.0,D,1891.0,410543.0,107.0,0.0,3.0,2075.0,50.0,
0,1234,-999999,0,0,IowaTask-v2.0,-mobile,jspsych-0.3a-mobile,1,List1,2024-04-29,0,0,projectseed-iowa-production,0.0-0.0-2.0-0.107,eng,6e64b31c6348ac9d094febdaa4fdb26e97e83af1,True,adolescent,1415.0,844,390,844,390,981eb31a-25ec-4262-870f-20061e400ac7,981eb31a-25ec-4262-870f-20061e400ac7,projectseed_production_april2024,3,,412891,430,html-button-response,"Mozilla/5.0 (iPhone; CPU iPhone OS 17_4 like Mac OS X) AppleWebKit/605.1.15 (KHTML, like Gecko) CriOS/124.0.6367.88 Mobile/15E148 Safari/604.1",,1681,980,-50.0,100.0,25.0,50.0,411858.0,A,1415.0,413273.0,108.0,-150.0,0.0,2025.0,-50.0,
0,1234,-999999,0,0,IowaTask-v2.0,-mobile,jspsych-0.3a-mobile,1,List1,2024-04-29,0,0,projectseed-iowa-production,0.0-0.0-2.0-0.108,eng,6e64b31c6348ac9d094febdaa4fdb26e97e83af1,True,adolescent,487.0,844,390,844,390,981eb31a-25ec-4262-870f-20061e400ac7,981eb31a-25ec-4262-870f-20061e400ac7,projectseed_production_april2024,3,,415695,434,html-button-response,"Mozilla/5.0 (iPhone; CPU iPhone OS 17_4 like Mac OS X) AppleWebKit/605.1.15 (KHTML, like Gecko) CriOS/124.0.6367.88 Mobile/15E148 Safari/604.1",,1681,980,-100.0,100.0,25.0,50.0,415587.0,B,487.0,416074.0,109.0,0.0,1.0,2125.0,100.0,
0,1234,-999999,0,0,IowaTask-v2.0,-mobile,jspsych-0.3a-mobile,1,List1,2024-04-29,0,0,projectseed-iowa-production,0.0-0.0-2.0-0.109,eng,6e64b31c6348ac9d094febdaa4fdb26e97e83af1,True,adolescent,763.0,844,390,844,390,981eb31a-25ec-4262-870f-20061e400ac7,981eb31a-25ec-4262-870f-20061e400ac7,projectseed_production_april2024,3,,417777,438,html-button-response,"Mozilla/5.0 (iPhone; CPU iPhone OS 17_4 like Mac OS X) AppleWebKit/605.1.15 (KHTML, like Gecko) CriOS/124.0.6367.88 Mobile/15E148 Safari/604.1",,1681,980,-100.0,100.0,25.0,50.0,417393.0,C,763.0,418156.0,110.0,-25.0,2.0,2150.0,25.0,
0,1234,-999999,0,0,IowaTask-v2.0,-mobile,jspsych-0.3a-mobile,1,List1,2024-04-29,0,0,projectseed-iowa-production,0.0-0.0-2.0-0.110,eng,6e64b31c6348ac9d094febdaa4fdb26e97e83af1,True,adolescent,763.0,844,390,844,390,981eb31a-25ec-4262-870f-20061e400ac7,981eb31a-25ec-4262-870f-20061e400ac7,projectseed_production_april2024,3,,420852,442,html-button-response,"Mozilla/5.0 (iPhone; CPU iPhone OS 17_4 like Mac OS X) AppleWebKit/605.1.15 (KHTML, like Gecko) CriOS/124.0.6367.88 Mobile/15E148 Safari/604.1",,1681,980,-100.0,100.0,50.0,50.0,420468.0,D,763.0,421231.0,111.0,0.0,3.0,2200.0,50.0,
0,1234,-999999,0,0,IowaTask-v2.0,-mobile,jspsych-0.3a-mobile,1,List1,2024-04-29,0,0,projectseed-iowa-production,0.0-0.0-2.0-0.111,eng,6e64b31c6348ac9d094febdaa4fdb26e97e83af1,True,adolescent,702.0,844,390,844,390,981eb31a-25ec-4262-870f-20061e400ac7,981eb31a-25ec-4262-870f-20061e400ac7,projectseed_production_april2024,3,,422866,446,html-button-response,"Mozilla/5.0 (iPhone; CPU iPhone OS 17_4 like Mac OS X) AppleWebKit/605.1.15 (KHTML, like Gecko) CriOS/124.0.6367.88 Mobile/15E148 Safari/604.1",,1681,980,-100.0,100.0,50.0,50.0,422543.0,A,702.0,423245.0,112.0,-200.0,0.0,2100.0,-100.0,
0,1234,-999999,0,0,IowaTask-v2.0,-mobile,jspsych-0.3a-mobile,1,List1,2024-04-29,0,0,projectseed-iowa-production,0.0-0.0-2.0-0.112,eng,6e64b31c6348ac9d094febdaa4fdb26e97e83af1,True,adolescent,1173.0,844,390,844,390,981eb31a-25ec-4262-870f-20061e400ac7,981eb31a-25ec-4262-870f-20061e400ac7,projectseed_production_april2024,3,,426351,450,html-button-response,"Mozilla/5.0 (iPhone; CPU iPhone OS 17_4 like Mac OS X) AppleWebKit/605.1.15 (KHTML, like Gecko) CriOS/124.0.6367.88 Mobile/15E148 Safari/604.1",,1681,980,-150.0,100.0,50.0,50.0,425556.0,B,1173.0,426729.0,113.0,0.0,1.0,2200.0,100.0,
0,1234,-999999,0,0,IowaTask-v2.0,-mobile,jspsych-0.3a-mobile,1,List1,2024-04-29,0,0,projectseed-iowa-production,0.0-0.0-2.0-0.113,eng,6e64b31c6348ac9d094febdaa4fdb26e97e83af1,True,adolescent,2313.0,844,390,844,390,981eb31a-25ec-4262-870f-20061e400ac7,981eb31a-25ec-4262-870f-20061e400ac7,projectseed_production_april2024,3,,429976,454,html-button-response,"Mozilla/5.0 (iPhone; CPU iPhone OS 17_4 like Mac OS X) AppleWebKit/605.1.15 (KHTML, like Gecko) CriOS/124.0.6367.88 Mobile/15E148 Safari/604.1",,1681,980,-150.0,-1150.0,50.0,50.0,428041.0,B,2313.0,430354.0,114.0,-1250.0,1.0,1050.0,-1150.0,
0,1234,-999999,0,0,IowaTask-v2.0,-mobile,jspsych-0.3a-mobile,1,List1,2024-04-29,0,0,projectseed-iowa-production,0.0-0.0-2.0-0.114,eng,6e64b31c6348ac9d094febdaa4fdb26e97e83af1,True,adolescent,736.0,844,390,844,390,981eb31a-25ec-4262-870f-20061e400ac7,981eb31a-25ec-4262-870f-20061e400ac7,projectseed_production_april2024,3,,433023,458,html-button-response,"Mozilla/5.0 (iPhone; CPU iPhone OS 17_4 like Mac OS X) AppleWebKit/605.1.15 (KHTML, like Gecko) CriOS/124.0.6367.88 Mobile/15E148 Safari/604.1",,1681,980,-150.0,100.0,50.0,50.0,432666.0,A,736.0,433402.0,115.0,-250.0,0.0,900.0,-150.0,
0,1234,-999999,0,0,IowaTask-v2.0,-mobile,jspsych-0.3a-mobile,1,List1,2024-04-29,0,0,projectseed-iowa-production,0.0-0.0-2.0-0.115,eng,6e64b31c6348ac9d094febdaa4fdb26e97e83af1,True,adolescent,570.0,844,390,844,390,981eb31a-25ec-4262-870f-20061e400ac7,981eb31a-25ec-4262-870f-20061e400ac7,projectseed_production_april2024,3,,435905,462,html-button-response,"Mozilla/5.0 (iPhone; CPU iPhone OS 17_4 like Mac OS X) AppleWebKit/605.1.15 (KHTML, like Gecko) CriOS/124.0.6367.88 Mobile/15E148 Safari/604.1",,1681,980,100.0,100.0,50.0,50.0,435714.0,D,570.0,436284.0,116.0,0.0,3.0,950.0,50.0,
0,1234,-999999,0,0,IowaTask-v2.0,-mobile,jspsych-0.3a-mobile,1,List1,2024-04-29,0,0,projectseed-iowa-production,0.0-0.0-2.0-0.116,eng,6e64b31c6348ac9d094febdaa4fdb26e97e83af1,True,adolescent,990.0,844,390,844,390,981eb31a-25ec-4262-870f-20061e400ac7,981eb31a-25ec-4262-870f-20061e400ac7,projectseed_production_april2024,3,,438206,466,html-button-response,"Mozilla/5.0 (iPhone; CPU iPhone OS 17_4 like Mac OS X) AppleWebKit/605.1.15 (KHTML, like Gecko) CriOS/124.0.6367.88 Mobile/15E148 Safari/604.1",,1681,980,100.0,100.0,50.0,50.0,437594.0,D,990.0,438584.0,117.0,0.0,3.0,1000.0,50.0,
0,1234,-999999,0,0,IowaTask-v2.0,-mobile,jspsych-0.3a-mobile,1,List1,2024-04-29,0,0,projectseed-iowa-production,0.0-0.0-2.0-0.117,eng,6e64b31c6348ac9d094febdaa4fdb26e97e83af1,True,adolescent,723.0,844,390,844,390,981eb31a-25ec-4262-870f-20061e400ac7,981eb31a-25ec-4262-870f-20061e400ac7,projectseed_production_april2024,3,,440239,470,html-button-response,"Mozilla/5.0 (iPhone; CPU iPhone OS 17_4 like Mac OS X) AppleWebKit/605.1.15 (KHTML, like Gecko) CriOS/124.0.6367.88 Mobile/15E148 Safari/604.1",,1681,980,100.0,100.0,50.0,50.0,439895.0,C,723.0,440618.0,118.0,0.0,2.0,1050.0,50.0,
0,1234,-999999,0,0,IowaTask-v2.0,-mobile,jspsych-0.3a-mobile,1,List1,2024-04-29,0,0,projectseed-iowa-production,0.0-0.0-2.0-0.118,eng,6e64b31c6348ac9d094febdaa4fdb26e97e83af1,True,adolescent,737.0,844,390,844,390,981eb31a-25ec-4262-870f-20061e400ac7,981eb31a-25ec-4262-870f-20061e400ac7,projectseed_production_april2024,3,,442288,474,html-button-response,"Mozilla/5.0 (iPhone; CPU iPhone OS 17_4 like Mac OS X) AppleWebKit/605.1.15 (KHTML, like Gecko) CriOS/124.0.6367.88 Mobile/15E148 Safari/604.1",,1681,980,100.0,100.0,25.0,50.0,441929.0,D,737.0,442666.0,119.0,0.0,3.0,1100.0,50.0,
0,1234,-999999,0,0,IowaTask-v2.0,-mobile,jspsych-0.3a-mobile,1,List1,2024-04-29,0,0,projectseed-iowa-production,0.0-0.0-2.0-0.119,eng,6e64b31c6348ac9d094febdaa4fdb26e97e83af1,True,adolescent,566.0,844,390,844,390,981eb31a-25ec-4262-870f-20061e400ac7,981eb31a-25ec-4262-870f-20061e400ac7,projectseed_production_april2024,3,,444173,478,html-button-response,"Mozilla/5.0 (iPhone; CPU iPhone OS 17_4 like Mac OS X) AppleWebKit/605.1.15 (KHTML, like Gecko) CriOS/124.0.6367.88 Mobile/15E148 Safari/604.1",,1681,980,100.0,100.0,25.0,50.0,443986.0,B,566.0,444552.0,120.0,0.0,1.0,1200.0,100.0,
0,1234,-999999,0,0,IowaTask-v2.0,-mobile,jspsych-0.3a-mobile,1,List1,2024-04-29,0,0,projectseed-iowa-production,0.0-0.0-2.0-0.120,eng,6e64b31c6348ac9d094febdaa4fdb26e97e83af1,True,adolescent,401.0,844,390,844,390,981eb31a-25ec-4262-870f-20061e400ac7,981eb31a-25ec-4262-870f-20061e400ac7,projectseed_production_april2024,3,,445888,482,html-button-response,"Mozilla/5.0 (iPhone; CPU iPhone OS 17_4 like Mac OS X) AppleWebKit/605.1.15 (KHTML, like Gecko) CriOS/124.0.6367.88 Mobile/15E148 Safari/604.1",,1681,980,100.0,100.0,25.0,50.0,445865.0,B,401.0,446266.0,121.0,0.0,1.0,1300.0,100.0,
0,1234,-999999,0,0,IowaTask-v2.0,-mobile,jspsych-0.3a-mobile,1,List1,2024-04-29,0,0,projectseed-iowa-production,0.0-0.0-2.0-0.121,eng,6e64b31c6348ac9d094febdaa4fdb26e97e83af1,True,adolescent,532.0,844,390,844,390,981eb31a-25ec-4262-870f-20061e400ac7,981eb31a-25ec-4262-870f-20061e400ac7,projectseed_production_april2024,3,,447732,486,html-button-response,"Mozilla/5.0 (iPhone; CPU iPhone OS 17_4 like Mac OS X) AppleWebKit/605.1.15 (KHTML, like Gecko) CriOS/124.0.6367.88 Mobile/15E148 Safari/604.1",,1681,980,100.0,100.0,25.0,50.0,447578.0,A,532.0,448110.0,122.0,0.0,0.0,1400.0,100.0,
0,1234,-999999,0,0,IowaTask-v2.0,-mobile,jspsych-0.3a-mobile,1,List1,2024-04-29,0,0,projectseed-iowa-production,0.0-0.0-2.0-0.122,eng,6e64b31c6348ac9d094febdaa4fdb26e97e83af1,True,adolescent,746.0,844,390,844,390,981eb31a-25ec-4262-870f-20061e400ac7,981eb31a-25ec-4262-870f-20061e400ac7,projectseed_production_april2024,3,,449790,490,html-button-response,"Mozilla/5.0 (iPhone; CPU iPhone OS 17_4 like Mac OS X) AppleWebKit/605.1.15 (KHTML, like Gecko) CriOS/124.0.6367.88 Mobile/15E148 Safari/604.1",,1681,980,100.0,100.0,25.0,50.0,449422.0,A,746.0,450168.0,123.0,0.0,0.0,1500.0,100.0,
0,1234,-999999,0,0,IowaTask-v2.0,-mobile,jspsych-0.3a-mobile,1,List1,2024-04-29,0,0,projectseed-iowa-production,0.0-0.0-2.0-0.123,eng,6e64b31c6348ac9d094febdaa4fdb26e97e83af1,True,adolescent,1120.0,844,390,844,390,981eb31a-25ec-4262-870f-20061e400ac7,981eb31a-25ec-4262-870f-20061e400ac7,projectseed_production_april2024,3,,452222,494,html-button-response,"Mozilla/5.0 (iPhone; CPU iPhone OS 17_4 like Mac OS X) AppleWebKit/605.1.15 (KHTML, like Gecko) CriOS/124.0.6367.88 Mobile/15E148 Safari/604.1",,1681,980,-50.0,100.0,25.0,50.0,451480.0,D,1120.0,452600.0,124.0,0.0,3.0,1550.0,50.0,
0,1234,-999999,0,0,IowaTask-v2.0,-mobile,jspsych-0.3a-mobile,1,List1,2024-04-29,0,0,projectseed-iowa-production,0.0-0.0-2.0-0.124,eng,6e64b31c6348ac9d094febdaa4fdb26e97e83af1,True,adolescent,622.0,844,390,844,390,981eb31a-25ec-4262-870f-20061e400ac7,981eb31a-25ec-4262-870f-20061e400ac7,projectseed_production_april2024,3,,454156,498,html-button-response,"Mozilla/5.0 (iPhone; CPU iPhone OS 17_4 like Mac OS X) AppleWebKit/605.1.15 (KHTML, like Gecko) CriOS/124.0.6367.88 Mobile/15E148 Safari/604.1",,1681,980,-50.0,100.0,25.0,-200.0,453912.0,C,622.0,454534.0,125.0,-25.0,2.0,1575.0,25.0,
0,1234,-999999,0,0,IowaTask-v2.0,-mobile,jspsych-0.3a-mobile,1,List1,2024-04-29,0,0,projectseed-iowa-production,0.0-0.0-2.0-0.125,eng,6e64b31c6348ac9d094febdaa4fdb26e97e83af1,True,adolescent,556.0,844,390,844,390,981eb31a-25ec-4262-870f-20061e400ac7,981eb31a-25ec-4262-870f-20061e400ac7,projectseed_production_april2024,3,,457024,502,html-button-response,"Mozilla/5.0 (iPhone; CPU iPhone OS 17_4 like Mac OS X) AppleWebKit/605.1.15 (KHTML, like Gecko) CriOS/124.0.6367.88 Mobile/15E148 Safari/604.1",,1681,980,-50.0,100.0,-25.0,-200.0,456846.0,C,556.0,457402.0,126.0,-75.0,2.0,1550.0,-25.0,
0,1234,-999999,0,0,IowaTask-v2.0,-mobile,jspsych-0.3a-mobile,1,List1,2024-04-29,0,0,projectseed-iowa-production,0.0-0.0-2.0-0.126,eng,6e64b31c6348ac9d094febdaa4fdb26e97e83af1,True,adolescent,133.0,844,390,844,390,981eb31a-25ec-4262-870f-20061e400ac7,981eb31a-25ec-4262-870f-20061e400ac7,projectseed_production_april2024,3,,459469,506,html-button-response,"Mozilla/5.0 (iPhone; CPU iPhone OS 17_4 like Mac OS X) AppleWebKit/605.1.15 (KHTML, like Gecko) CriOS/124.0.6367.88 Mobile/15E148 Safari/604.1",,1681,980,-50.0,100.0,50.0,-200.0,459714.00000000006,D,133.0,459847.00000000006,127.0,-250.0,3.0,1350.0,-200.0,
0,1234,-999999,0,0,IowaTask-v2.0,-mobile,jspsych-0.3a-mobile,1,List1,2024-04-29,0,0,projectseed-iowa-production,0.0-0.0-2.0-0.127,eng,6e64b31c6348ac9d094febdaa4fdb26e97e83af1,True,adolescent,549.0,844,390,844,390,981eb31a-25ec-4262-870f-20061e400ac7,981eb31a-25ec-4262-870f-20061e400ac7,projectseed_production_april2024,3,,462329,510,html-button-response,"Mozilla/5.0 (iPhone; CPU iPhone OS 17_4 like Mac OS X) AppleWebKit/605.1.15 (KHTML, like Gecko) CriOS/124.0.6367.88 Mobile/15E148 Safari/604.1",,1681,980,-50.0,100.0,50.0,50.0,462158.0,C,549.0,462707.0,128.0,0.0,2.0,1400.0,50.0,
0,1234,-999999,0,0,IowaTask-v2.0,-mobile,jspsych-0.3a-mobile,1,List1,2024-04-29,0,0,projectseed-iowa-production,0.0-0.0-2.0-0.128,eng,6e64b31c6348ac9d094febdaa4fdb26e97e83af1,True,adolescent,519.0,844,390,844,390,981eb31a-25ec-4262-870f-20061e400ac7,981eb31a-25ec-4262-870f-20061e400ac7,projectseed_production_april2024,3,,464160,514,html-button-response,"Mozilla/5.0 (iPhone; CPU iPhone OS 17_4 like Mac OS X) AppleWebKit/605.1.15 (KHTML, like Gecko) CriOS/124.0.6367.88 Mobile/15E148 Safari/604.1",,1681,980,-50.0,100.0,25.0,50.0,464019.0,B,519.0,464538.0,129.0,0.0,1.0,1500.0,100.0,
0,1234,-999999,0,0,IowaTask-v2.0,-mobile,jspsych-0.3a-mobile,1,List1,2024-04-29,0,0,projectseed-iowa-production,0.0-0.0-2.0-0.129,eng,6e64b31c6348ac9d094febdaa4fdb26e97e83af1,True,adolescent,2272.0,844,390,844,390,981eb31a-25ec-4262-870f-20061e400ac7,981eb31a-25ec-4262-870f-20061e400ac7,projectseed_production_april2024,3,,467746,518,html-button-response,"Mozilla/5.0 (iPhone; CPU iPhone OS 17_4 like Mac OS X) AppleWebKit/605.1.15 (KHTML, like Gecko) CriOS/124.0.6367.88 Mobile/15E148 Safari/604.1",,1681,980,-50.0,100.0,25.0,50.0,465852.0,A,2272.0,468124.0,130.0,-150.0,0.0,1450.0,-50.0,
0,1234,-999999,0,0,IowaTask-v2.0,-mobile,jspsych-0.3a-mobile,1,List1,2024-04-29,0,0,projectseed-iowa-production,0.0-0.0-2.0-0.130,eng,6e64b31c6348ac9d094febdaa4fdb26e97e83af1,True,adolescent,514.0,844,390,844,390,981eb31a-25ec-4262-870f-20061e400ac7,981eb31a-25ec-4262-870f-20061e400ac7,projectseed_production_april2024,3,,470575,522,html-button-response,"Mozilla/5.0 (iPhone; CPU iPhone OS 17_4 like Mac OS X) AppleWebKit/605.1.15 (KHTML, like Gecko) CriOS/124.0.6367.88 Mobile/15E148 Safari/604.1",,1681,980,-250.0,100.0,25.0,50.0,470438.0,A,514.0,470952.0,131.0,-350.0,0.0,1200.0,-250.0,
0,1234,-999999,0,0,IowaTask-v2.0,-mobile,jspsych-0.3a-mobile,1,List1,2024-04-29,0,0,projectseed-iowa-production,0.0-0.0-2.0-0.131,eng,6e64b31c6348ac9d094febdaa4fdb26e97e83af1,True,adolescent,378.0,844,390,844,390,981eb31a-25ec-4262-870f-20061e400ac7,981eb31a-25ec-4262-870f-20061e400ac7,projectseed_production_april2024,3,,473264,526,html-button-response,"Mozilla/5.0 (iPhone; CPU iPhone OS 17_4 like Mac OS X) AppleWebKit/605.1.15 (KHTML, like Gecko) CriOS/124.0.6367.88 Mobile/15E148 Safari/604.1",,1681,980,-100.0,100.0,25.0,50.0,473264.0,A,378.0,473642.0,132.0,-200.0,0.0,1100.0,-100.0,
0,1234,-999999,0,0,IowaTask-v2.0,-mobile,jspsych-0.3a-mobile,1,List1,2024-04-29,0,0,projectseed-iowa-production,0.0-0.0-2.0-0.132,eng,6e64b31c6348ac9d094febdaa4fdb26e97e83af1,True,adolescent,417.0,844,390,844,390,981eb31a-25ec-4262-870f-20061e400ac7,981eb31a-25ec-4262-870f-20061e400ac7,projectseed_production_april2024,3,,475992,530,html-button-response,"Mozilla/5.0 (iPhone; CPU iPhone OS 17_4 like Mac OS X) AppleWebKit/605.1.15 (KHTML, like Gecko) CriOS/124.0.6367.88 Mobile/15E148 Safari/604.1",,1681,980,100.0,100.0,25.0,50.0,475953.0,A,417.0,476370.0,133.0,0.0,0.0,1200.0,100.0,
0,1234,-999999,0,0,IowaTask-v2.0,-mobile,jspsych-0.3a-mobile,1,List1,2024-04-29,0,0,projectseed-iowa-production,0.0-0.0-2.0-0.133,eng,6e64b31c6348ac9d094febdaa4fdb26e97e83af1,True,adolescent,624.0,844,390,844,390,981eb31a-25ec-4262-870f-20061e400ac7,981eb31a-25ec-4262-870f-20061e400ac7,projectseed_production_april2024,3,,477931,534,html-button-response,"Mozilla/5.0 (iPhone; CPU iPhone OS 17_4 like Mac OS X) AppleWebKit/605.1.15 (KHTML, like Gecko) CriOS/124.0.6367.88 Mobile/15E148 Safari/604.1",,1681,980,100.0,100.0,25.0,50.0,477685.0,A,624.0,478309.0,134.0,0.0,0.0,1300.0,100.0,
0,1234,-999999,0,0,IowaTask-v2.0,-mobile,jspsych-0.3a-mobile,1,List1,2024-04-29,0,0,projectseed-iowa-production,0.0-0.0-2.0-0.134,eng,6e64b31c6348ac9d094febdaa4fdb26e97e83af1,True,adolescent,147.0,844,390,844,390,981eb31a-25ec-4262-870f-20061e400ac7,981eb31a-25ec-4262-870f-20061e400ac7,projectseed_production_april2024,3,,479390,538,html-button-response,"Mozilla/5.0 (iPhone; CPU iPhone OS 17_4 like Mac OS X) AppleWebKit/605.1.15 (KHTML, like Gecko) CriOS/124.0.6367.88 Mobile/15E148 Safari/604.1",,1681,980,100.0,100.0,25.0,50.0,479620.0,A,147.0,479767.0,135.0,0.0,0.0,1400.0,100.0,
0,1234,-999999,0,0,IowaTask-v2.0,-mobile,jspsych-0.3a-mobile,1,List1,2024-04-29,0,0,projectseed-iowa-production,0.0-0.0-2.0-0.135,eng,6e64b31c6348ac9d094febdaa4fdb26e97e83af1,True,adolescent,514.0,844,390,844,390,981eb31a-25ec-4262-870f-20061e400ac7,981eb31a-25ec-4262-870f-20061e400ac7,projectseed_production_april2024,3,,481214,542,html-button-response,"Mozilla/5.0 (iPhone; CPU iPhone OS 17_4 like Mac OS X) AppleWebKit/605.1.15 (KHTML, like Gecko) CriOS/124.0.6367.88 Mobile/15E148 Safari/604.1",,1681,980,-150.0,100.0,25.0,50.0,481078.0,A,514.0,481592.0,136.0,-250.0,0.0,1250.0,-150.0,
0,1234,-999999,0,0,IowaTask-v2.0,-mobile,jspsych-0.3a-mobile,1,List1,2024-04-29,0,0,projectseed-iowa-production,0.0-0.0-2.0-0.136,eng,6e64b31c6348ac9d094febdaa4fdb26e97e83af1,True,adolescent,523.0,844,390,844,390,981eb31a-25ec-4262-870f-20061e400ac7,981eb31a-25ec-4262-870f-20061e400ac7,projectseed_production_april2024,3,,484049,546,html-button-response,"Mozilla/5.0 (iPhone; CPU iPhone OS 17_4 like Mac OS X) AppleWebKit/605.1.15 (KHTML, like Gecko) CriOS/124.0.6367.88 Mobile/15E148 Safari/604.1",,1681,980,-200.0,100.0,25.0,50.0,483904.0,B,523.0,484427.0,137.0,0.0,1.0,1350.0,100.0,
0,1234,-999999,0,0,IowaTask-v2.0,-mobile,jspsych-0.3a-mobile,1,List1,2024-04-29,0,0,projectseed-iowa-production,0.0-0.0-2.0-0.137,eng,6e64b31c6348ac9d094febdaa4fdb26e97e83af1,True,adolescent,537.0,844,390,844,390,981eb31a-25ec-4262-870f-20061e400ac7,981eb31a-25ec-4262-870f-20061e400ac7,projectseed_production_april2024,3,,485899,550,html-button-response,"Mozilla/5.0 (iPhone; CPU iPhone OS 17_4 like Mac OS X) AppleWebKit/605.1.15 (KHTML, like Gecko) CriOS/124.0.6367.88 Mobile/15E148 Safari/604.1",,1681,980,-200.0,100.0,25.0,50.0,485740.0,B,537.0,486277.0,138.0,0.0,1.0,1450.0,100.0,
0,1234,-999999,0,0,IowaTask-v2.0,-mobile,jspsych-0.3a-mobile,1,List1,2024-04-29,0,0,projectseed-iowa-production,0.0-0.0-2.0-0.138,eng,6e64b31c6348ac9d094febdaa4fdb26e97e83af1,True,adolescent,517.0,844,390,844,390,981eb31a-25ec-4262-870f-20061e400ac7,981eb31a-25ec-4262-870f-20061e400ac7,projectseed_production_april2024,3,,487728,554,html-button-response,"Mozilla/5.0 (iPhone; CPU iPhone OS 17_4 like Mac OS X) AppleWebKit/605.1.15 (KHTML, like Gecko) CriOS/124.0.6367.88 Mobile/15E148 Safari/604.1",,1681,980,-200.0,100.0,25.0,50.0,487589.0,D,517.0,488106.0,139.0,0.0,3.0,1500.0,50.0,
0,1234,-999999,0,0,IowaTask-v2.0,-mobile,jspsych-0.3a-mobile,1,List1,2024-04-29,0,0,projectseed-iowa-production,0.0-0.0-2.0-0.139,eng,6e64b31c6348ac9d094febdaa4fdb26e97e83af1,True,adolescent,527.0,844,390,844,390,981eb31a-25ec-4262-870f-20061e400ac7,981eb31a-25ec-4262-870f-20061e400ac7,projectseed_production_april2024,3,,489568,558,html-button-response,"Mozilla/5.0 (iPhone; CPU iPhone OS 17_4 like Mac OS X) AppleWebKit/605.1.15 (KHTML, like Gecko) CriOS/124.0.6367.88 Mobile/15E148 Safari/604.1",,1681,980,-200.0,100.0,25.0,50.0,489418.0,C,527.0,489945.0,140.0,-25.0,2.0,1525.0,25.0,
0,1234,-999999,0,0,IowaTask-v2.0,-mobile,jspsych-0.3a-mobile,1,List1,2024-04-29,0,0,projectseed-iowa-production,0.0-0.0-2.0-0.140,eng,6e64b31c6348ac9d094febdaa4fdb26e97e83af1,True,adolescent,553.0,844,390,844,390,981eb31a-25ec-4262-870f-20061e400ac7,981eb31a-25ec-4262-870f-20061e400ac7,projectseed_production_april2024,3,,492432,562,html-button-response,"Mozilla/5.0 (iPhone; CPU iPhone OS 17_4 like Mac OS X) AppleWebKit/605.1.15 (KHTML, like Gecko) CriOS/124.0.6367.88 Mobile/15E148 Safari/604.1",,1681,980,-200.0,100.0,50.0,50.0,492260.0,D,553.0,492813.0,141.0,0.0,3.0,1575.0,50.0,
0,1234,-999999,0,0,IowaTask-v2.0,-mobile,jspsych-0.3a-mobile,1,List1,2024-04-29,0,0,projectseed-iowa-production,0.0-0.0-2.0-0.141,eng,6e64b31c6348ac9d094febdaa4fdb26e97e83af1,True,adolescent,618.0,844,390,844,390,981eb31a-25ec-4262-870f-20061e400ac7,981eb31a-25ec-4262-870f-20061e400ac7,projectseed_production_april2024,3,,494368,566,html-button-response,"Mozilla/5.0 (iPhone; CPU iPhone OS 17_4 like Mac OS X) AppleWebKit/605.1.15 (KHTML, like Gecko) CriOS/124.0.6367.88 Mobile/15E148 Safari/604.1",,1681,980,-200.0,100.0,50.0,50.0,494128.00000000006,B,618.0,494746.00000000006,142.0,0.0,1.0,1675.0,100.0,
0,1234,-999999,0,0,IowaTask-v2.0,-mobile,jspsych-0.3a-mobile,1,List1,2024-04-29,0,0,projectseed-iowa-production,0.0-0.0-2.0-0.142,eng,6e64b31c6348ac9d094febdaa4fdb26e97e83af1,True,adolescent,604.0,844,390,844,390,981eb31a-25ec-4262-870f-20061e400ac7,981eb31a-25ec-4262-870f-20061e400ac7,projectseed_production_april2024,3,,496285,570,html-button-response,"Mozilla/5.0 (iPhone; CPU iPhone OS 17_4 like Mac OS X) AppleWebKit/605.1.15 (KHTML, like Gecko) CriOS/124.0.6367.88 Mobile/15E148 Safari/604.1",,1681,980,-200.0,100.0,50.0,50.0,496058.00000000006,D,604.0,496662.00000000006,143.0,0.0,3.0,1725.0,50.0,
0,1234,-999999,0,0,IowaTask-v2.0,-mobile,jspsych-0.3a-mobile,1,List1,2024-04-29,0,0,projectseed-iowa-production,0.0-0.0-2.0-0.143,eng,6e64b31c6348ac9d094febdaa4fdb26e97e83af1,True,adolescent,498.0,844,390,844,390,981eb31a-25ec-4262-870f-20061e400ac7,981eb31a-25ec-4262-870f-20061e400ac7,projectseed_production_april2024,3,,498095,574,html-button-response,"Mozilla/5.0 (iPhone; CPU iPhone OS 17_4 like Mac OS X) AppleWebKit/605.1.15 (KHTML, like Gecko) CriOS/124.0.6367.88 Mobile/15E148 Safari/604.1",,1681,980,-200.0,100.0,50.0,50.0,497974.00000000006,A,498.0,498472.00000000006,144.0,-300.0,0.0,1525.0,-200.0,
0,1234,-999999,0,0,IowaTask-v2.0,-mobile,jspsych-0.3a-mobile,1,List1,2024-04-29,0,0,projectseed-iowa-production,0.0-0.0-2.0-0.144,eng,6e64b31c6348ac9d094febdaa4fdb26e97e83af1,True,adolescent,525.0,844,390,844,390,981eb31a-25ec-4262-870f-20061e400ac7,981eb31a-25ec-4262-870f-20061e400ac7,projectseed_production_april2024,3,,500931,578,html-button-response,"Mozilla/5.0 (iPhone; CPU iPhone OS 17_4 like Mac OS X) AppleWebKit/605.1.15 (KHTML, like Gecko) CriOS/124.0.6367.88 Mobile/15E148 Safari/604.1",,1681,980,100.0,100.0,50.0,50.0,500783.0,A,525.0,501308.0,145.0,0.0,0.0,1625.0,100.0,
0,1234,-999999,0,0,IowaTask-v2.0,-mobile,jspsych-0.3a-mobile,1,List1,2024-04-29,0,0,projectseed-iowa-production,0.0-0.0-2.0-0.145,eng,6e64b31c6348ac9d094febdaa4fdb26e97e83af1,True,adolescent,1247.0,844,390,844,390,981eb31a-25ec-4262-870f-20061e400ac7,981eb31a-25ec-4262-870f-20061e400ac7,projectseed_production_april2024,3,,503490,582,html-button-response,"Mozilla/5.0 (iPhone; CPU iPhone OS 17_4 like Mac OS X) AppleWebKit/605.1.15 (KHTML, like Gecko) CriOS/124.0.6367.88 Mobile/15E148 Safari/604.1",,1681,980,-250.0,100.0,50.0,50.0,502620.0,A,1247.0,503867.0,146.0,-350.0,0.0,1375.0,-250.0,
0,1234,-999999,0,0,IowaTask-v2.0,-mobile,jspsych-0.3a-mobile,1,List1,2024-04-29,0,0,projectseed-iowa-production,0.0-0.0-2.0-0.146,eng,6e64b31c6348ac9d094febdaa4fdb26e97e83af1,True,adolescent,596.0,844,390,844,390,981eb31a-25ec-4262-870f-20061e400ac7,981eb31a-25ec-4262-870f-20061e400ac7,projectseed_production_april2024,3,,506398,586,html-button-response,"Mozilla/5.0 (iPhone; CPU iPhone OS 17_4 like Mac OS X) AppleWebKit/605.1.15 (KHTML, like Gecko) CriOS/124.0.6367.88 Mobile/15E148 Safari/604.1",,1681,980,-200.0,100.0,50.0,50.0,506179.00000000006,B,596.0,506775.00000000006,147.0,0.0,1.0,1475.0,100.0,
0,1234,-999999,0,0,IowaTask-v2.0,-mobile,jspsych-0.3a-mobile,1,List1,2024-04-29,0,0,projectseed-iowa-production,0.0-0.0-2.0-0.147,eng,6e64b31c6348ac9d094febdaa4fdb26e97e83af1,True,adolescent,839.0,844,390,844,390,981eb31a-25ec-4262-870f-20061e400ac7,981eb31a-25ec-4262-870f-20061e400ac7,projectseed_production_april2024,3,,508548,590,html-button-response,"Mozilla/5.0 (iPhone; CPU iPhone OS 17_4 like Mac OS X) AppleWebKit/605.1.15 (KHTML, like Gecko) CriOS/124.0.6367.88 Mobile/15E148 Safari/604.1",,1681,980,-200.0,100.0,50.0,50.0,508087.0,D,839.0,508926.0,148.0,0.0,3.0,1525.0,50.0,
0,1234,-999999,0,0,IowaTask-v2.0,-mobile,jspsych-0.3a-mobile,1,List1,2024-04-29,0,0,projectseed-iowa-production,0.0-0.0-2.0-0.148,eng,6e64b31c6348ac9d094febdaa4fdb26e97e83af1,True,adolescent,962.0,844,390,844,390,981eb31a-25ec-4262-870f-20061e400ac7,981eb31a-25ec-4262-870f-20061e400ac7,projectseed_production_april2024,3,,510822,594,html-button-response,"Mozilla/5.0 (iPhone; CPU iPhone OS 17_4 like Mac OS X) AppleWebKit/605.1.15 (KHTML, like Gecko) CriOS/124.0.6367.88 Mobile/15E148 Safari/604.1",,1681,980,-200.0,100.0,50.0,50.0,510238.0,D,962.0,511200.0,149.0,0.0,3.0,1575.0,50.0,
0,1234,-999999,0,0,IowaTask-v2.0,-mobile,jspsych-0.3a-mobile,1,List1,2024-04-29,0,0,projectseed-iowa-production,0.0-0.0-2.0-0.149,eng,6e64b31c6348ac9d094febdaa4fdb26e97e83af1,True,adolescent,828.0,844,390,844,390,981eb31a-25ec-4262-870f-20061e400ac7,981eb31a-25ec-4262-870f-20061e400ac7,projectseed_production_april2024,3,,512970,598,html-button-response,"Mozilla/5.0 (iPhone; CPU iPhone OS 17_4 like Mac OS X) AppleWebKit/605.1.15 (KHTML, like Gecko) CriOS/124.0.6367.88 Mobile/15E148 Safari/604.1",,1681,980,-200.0,100.0,50.0,50.0,512519.0,D,828.0,513347.0,150.0,0.0,3.0,1625.0,50.0,
0,1234,-999999,0,0,IowaTask-v2.0,-mobile,jspsych-0.3a-mobile,1,List1,2024-04-29,0,0,projectseed-iowa-production,0.0-0.0-2.0-0.150,eng,6e64b31c6348ac9d094febdaa4fdb26e97e83af1,True,adolescent,752.0,844,390,844,390,981eb31a-25ec-4262-870f-20061e400ac7,981eb31a-25ec-4262-870f-20061e400ac7,projectseed_production_april2024,3,,515036,602,html-button-response,"Mozilla/5.0 (iPhone; CPU iPhone OS 17_4 like Mac OS X) AppleWebKit/605.1.15 (KHTML, like Gecko) CriOS/124.0.6367.88 Mobile/15E148 Safari/604.1",,1681,980,-200.0,100.0,50.0,50.0,514661.0,D,752.0,515413.0,151.0,0.0,3.0,1675.0,50.0,
0,1234,-999999,0,0,IowaTask-v2.0,-mobile,jspsych-0.3a-mobile,1,List1,2024-04-29,0,0,projectseed-iowa-production,0.0-0.0-2.0-0.151,eng,6e64b31c6348ac9d094febdaa4fdb26e97e83af1,True,adolescent,804.0,844,390,844,390,981eb31a-25ec-4262-870f-20061e400ac7,981eb31a-25ec-4262-870f-20061e400ac7,projectseed_production_april2024,3,,517153,606,html-button-response,"Mozilla/5.0 (iPhone; CPU iPhone OS 17_4 like Mac OS X) AppleWebKit/605.1.15 (KHTML, like Gecko) CriOS/124.0.6367.88 Mobile/15E148 Safari/604.1",,1681,980,-200.0,100.0,50.0,-200.0,516726.0,B,804.0,517530.0,152.0,0.0,1.0,1775.0,100.0,
0,1234,-999999,0,0,IowaTask-v2.0,-mobile,jspsych-0.3a-mobile,1,List1,2024-04-29,0,0,projectseed-iowa-production,0.0-0.0-2.0-0.152,eng,6e64b31c6348ac9d094febdaa4fdb26e97e83af1,True,adolescent,672.0,844,390,844,390,981eb31a-25ec-4262-870f-20061e400ac7,981eb31a-25ec-4262-870f-20061e400ac7,projectseed_production_april2024,3,,519136,610,html-button-response,"Mozilla/5.0 (iPhone; CPU iPhone OS 17_4 like Mac OS X) AppleWebKit/605.1.15 (KHTML, like Gecko) CriOS/124.0.6367.88 Mobile/15E148 Safari/604.1",,1681,980,-200.0,100.0,50.0,-200.0,518841.00000000006,D,672.0,519513.00000000006,153.0,-250.0,3.0,1575.0,-200.0,
0,1234,-999999,0,0,IowaTask-v2.0,-mobile,jspsych-0.3a-mobile,1,List1,2024-04-29,0,0,projectseed-iowa-production,0.0-0.0-2.0-0.153,eng,6e64b31c6348ac9d094febdaa4fdb26e97e83af1,True,adolescent,456.0,844,390,844,390,981eb31a-25ec-4262-870f-20061e400ac7,981eb31a-25ec-4262-870f-20061e400ac7,projectseed_production_april2024,3,,521903,614,html-button-response,"Mozilla/5.0 (iPhone; CPU iPhone OS 17_4 like Mac OS X) AppleWebKit/605.1.15 (KHTML, like Gecko) CriOS/124.0.6367.88 Mobile/15E148 Safari/604.1",,1681,980,-200.0,100.0,50.0,50.0,521825.00000000006,B,456.0,522281.00000000006,154.0,0.0,1.0,1675.0,100.0,
0,1234,-999999,0,0,IowaTask-v2.0,-mobile,jspsych-0.3a-mobile,1,List1,2024-04-29,0,0,projectseed-iowa-production,0.0-0.0-2.0-0.154,eng,6e64b31c6348ac9d094febdaa4fdb26e97e83af1,True,adolescent,687.0,844,390,844,390,981eb31a-25ec-4262-870f-20061e400ac7,981eb31a-25ec-4262-870f-20061e400ac7,projectseed_production_april2024,3,,523903,618,html-button-response,"Mozilla/5.0 (iPhone; CPU iPhone OS 17_4 like Mac OS X) AppleWebKit/605.1.15 (KHTML, like Gecko) CriOS/124.0.6367.88 Mobile/15E148 Safari/604.1",,1681,980,-200.0,100.0,50.0,50.0,523596.0,B,687.0,524283.0,155.0,0.0,1.0,1775.0,100.0,
0,1234,-999999,0,0,IowaTask-v2.0,-mobile,jspsych-0.3a-mobile,1,List1,2024-04-29,0,0,projectseed-iowa-production,0.0-0.0-2.0-0.155,eng,6e64b31c6348ac9d094febdaa4fdb26e97e83af1,True,adolescent,451.0,844,390,844,390,981eb31a-25ec-4262-870f-20061e400ac7,981eb31a-25ec-4262-870f-20061e400ac7,projectseed_production_april2024,3,,525670,622,html-button-response,"Mozilla/5.0 (iPhone; CPU iPhone OS 17_4 like Mac OS X) AppleWebKit/605.1.15 (KHTML, like Gecko) CriOS/124.0.6367.88 Mobile/15E148 Safari/604.1",,1681,980,-200.0,100.0,50.0,50.0,525596.0,D,451.0,526047.0,156.0,0.0,3.0,1825.0,50.0,
0,1234,-999999,0,0,IowaTask-v2.0,-mobile,jspsych-0.3a-mobile,1,List1,2024-04-29,0,0,projectseed-iowa-production,0.0-0.0-2.0-0.156,eng,6e64b31c6348ac9d094febdaa4fdb26e97e83af1,True,adolescent,489.0,844,390,844,390,981eb31a-25ec-4262-870f-20061e400ac7,981eb31a-25ec-4262-870f-20061e400ac7,projectseed_production_april2024,3,,527471,626,html-button-response,"Mozilla/5.0 (iPhone; CPU iPhone OS 17_4 like Mac OS X) AppleWebKit/605.1.15 (KHTML, like Gecko) CriOS/124.0.6367.88 Mobile/15E148 Safari/604.1",,1681,980,-200.0,100.0,50.0,50.0,527359.0,B,489.0,527848.0,157.0,0.0,1.0,1925.0,100.0,
0,1234,-999999,0,0,IowaTask-v2.0,-mobile,jspsych-0.3a-mobile,1,List1,2024-04-29,0,0,projectseed-iowa-production,0.0-0.0-2.0-0.157,eng,6e64b31c6348ac9d094febdaa4fdb26e97e83af1,True,adolescent,502.0,844,390,844,390,981eb31a-25ec-4262-870f-20061e400ac7,981eb31a-25ec-4262-870f-20061e400ac7,projectseed_production_april2024,3,,529285,630,html-button-response,"Mozilla/5.0 (iPhone; CPU iPhone OS 17_4 like Mac OS X) AppleWebKit/605.1.15 (KHTML, like Gecko) CriOS/124.0.6367.88 Mobile/15E148 Safari/604.1",,1681,980,-200.0,100.0,50.0,50.0,529159.0,D,502.0,529661.0,158.0,0.0,3.0,1975.0,50.0,
0,1234,-999999,0,0,IowaTask-v2.0,-mobile,jspsych-0.3a-mobile,1,List1,2024-04-29,0,0,projectseed-iowa-production,0.0-0.0-2.0-0.158,eng,6e64b31c6348ac9d094febdaa4fdb26e97e83af1,True,adolescent,540.0,844,390,844,390,981eb31a-25ec-4262-870f-20061e400ac7,981eb31a-25ec-4262-870f-20061e400ac7,projectseed_production_april2024,3,,531137,634,html-button-response,"Mozilla/5.0 (iPhone; CPU iPhone OS 17_4 like Mac OS X) AppleWebKit/605.1.15 (KHTML, like Gecko) CriOS/124.0.6367.88 Mobile/15E148 Safari/604.1",,1681,980,-200.0,100.0,50.0,50.0,530974.0,B,540.0,531514.0,159.0,0.0,1.0,2075.0,100.0,
0,1234,-999999,0,0,IowaTask-v2.0,-mobile,jspsych-0.3a-mobile,1,List1,2024-04-29,0,0,projectseed-iowa-production,0.0-0.0-2.0-0.159,eng,6e64b31c6348ac9d094febdaa4fdb26e97e83af1,True,adolescent,556.0,844,390,844,390,981eb31a-25ec-4262-870f-20061e400ac7,981eb31a-25ec-4262-870f-20061e400ac7,projectseed_production_april2024,3,,533005,638,html-button-response,"Mozilla/5.0 (iPhone; CPU iPhone OS 17_4 like Mac OS X) AppleWebKit/605.1.15 (KHTML, like Gecko) CriOS/124.0.6367.88 Mobile/15E148 Safari/604.1",,1681,980,-200.0,100.0,50.0,50.0,532826.0000000001,D,556.0,533382.0000000001,160.0,0.0,3.0,2125.0,50.0,
0,1234,-999999,0,0,IowaTask-v2.0,-mobile,jspsych-0.3a-mobile,1,List1,2024-04-29,0,0,projectseed-iowa-production,0.0-0.0-2.0-0.160,eng,6e64b31c6348ac9d094febdaa4fdb26e97e83af1,True,adolescent,1033.0,844,390,844,390,981eb31a-25ec-4262-870f-20061e400ac7,981eb31a-25ec-4262-870f-20061e400ac7,projectseed_production_april2024,3,,535355,642,html-button-response,"Mozilla/5.0 (iPhone; CPU iPhone OS 17_4 like Mac OS X) AppleWebKit/605.1.15 (KHTML, like Gecko) CriOS/124.0.6367.88 Mobile/15E148 Safari/604.1",,1681,980,-200.0,100.0,50.0,50.0,534699.0,D,1033.0,535732.0,161.0,0.0,3.0,2175.0,50.0,
0,1234,-999999,0,0,IowaTask-v2.0,-mobile,jspsych-0.3a-mobile,1,List1,2024-04-29,0,0,projectseed-iowa-production,0.0-0.0-2.0-0.161,eng,6e64b31c6348ac9d094febdaa4fdb26e97e83af1,True,adolescent,571.0,844,390,844,390,981eb31a-25ec-4262-870f-20061e400ac7,981eb31a-25ec-4262-870f-20061e400ac7,projectseed_production_april2024,3,,537239,646,html-button-response,"Mozilla/5.0 (iPhone; CPU iPhone OS 17_4 like Mac OS X) AppleWebKit/605.1.15 (KHTML, like Gecko) CriOS/124.0.6367.88 Mobile/15E148 Safari/604.1",,1681,980,-200.0,100.0,50.0,50.0,537045.0,D,571.0,537616.0,162.0,0.0,3.0,2225.0,50.0,
0,1234,-999999,0,0,IowaTask-v2.0,-mobile,jspsych-0.3a-mobile,1,List1,2024-04-29,0,0,projectseed-iowa-production,0.0-0.0-2.0-0.162,eng,6e64b31c6348ac9d094febdaa4fdb26e97e83af1,True,adolescent,519.0,844,390,844,390,981eb31a-25ec-4262-870f-20061e400ac7,981eb31a-25ec-4262-870f-20061e400ac7,projectseed_production_april2024,3,,539071,650,html-button-response,"Mozilla/5.0 (iPhone; CPU iPhone OS 17_4 like Mac OS X) AppleWebKit/605.1.15 (KHTML, like Gecko) CriOS/124.0.6367.88 Mobile/15E148 Safari/604.1",,1681,980,-200.0,100.0,50.0,50.0,538929.0,D,519.0,539448.0,163.0,0.0,3.0,2275.0,50.0,
0,1234,-999999,0,0,IowaTask-v2.0,-mobile,jspsych-0.3a-mobile,1,List1,2024-04-29,0,0,projectseed-iowa-production,0.0-0.0-2.0-0.163,eng,6e64b31c6348ac9d094febdaa4fdb26e97e83af1,True,adolescent,528.0,844,390,844,390,981eb31a-25ec-4262-870f-20061e400ac7,981eb31a-25ec-4262-870f-20061e400ac7,projectseed_production_april2024,3,,540911,654,html-button-response,"Mozilla/5.0 (iPhone; CPU iPhone OS 17_4 like Mac OS X) AppleWebKit/605.1.15 (KHTML, like Gecko) CriOS/124.0.6367.88 Mobile/15E148 Safari/604.1",,1681,980,-200.0,100.0,50.0,50.0,540759.0,D,528.0,541287.0,164.0,0.0,3.0,2325.0,50.0,
0,1234,-999999,0,0,IowaTask-v2.0,-mobile,jspsych-0.3a-mobile,1,List1,2024-04-29,0,0,projectseed-iowa-production,0.0-0.0-2.0-0.164,eng,6e64b31c6348ac9d094febdaa4fdb26e97e83af1,True,adolescent,519.0,844,390,844,390,981eb31a-25ec-4262-870f-20061e400ac7,981eb31a-25ec-4262-870f-20061e400ac7,projectseed_production_april2024,3,,542741,658,html-button-response,"Mozilla/5.0 (iPhone; CPU iPhone OS 17_4 like Mac OS X) AppleWebKit/605.1.15 (KHTML, like Gecko) CriOS/124.0.6367.88 Mobile/15E148 Safari/604.1",,1681,980,-200.0,100.0,50.0,50.0,542598.0,D,519.0,543117.0,165.0,0.0,3.0,2375.0,50.0,
0,1234,-999999,0,0,IowaTask-v2.0,-mobile,jspsych-0.3a-mobile,1,List1,2024-04-29,0,0,projectseed-iowa-production,0.0-0.0-2.0-0.165,eng,6e64b31c6348ac9d094febdaa4fdb26e97e83af1,True,adolescent,640.0,844,390,844,390,981eb31a-25ec-4262-870f-20061e400ac7,981eb31a-25ec-4262-870f-20061e400ac7,projectseed_production_april2024,3,,544692,662,html-button-response,"Mozilla/5.0 (iPhone; CPU iPhone OS 17_4 like Mac OS X) AppleWebKit/605.1.15 (KHTML, like Gecko) CriOS/124.0.6367.88 Mobile/15E148 Safari/604.1",,1681,980,-200.0,100.0,50.0,50.0,544428.0,D,640.0,545068.0,166.0,0.0,3.0,2425.0,50.0,
0,1234,-999999,0,0,IowaTask-v2.0,-mobile,jspsych-0.3a-mobile,1,List1,2024-04-29,0,0,projectseed-iowa-production,0.0-0.0-2.0-0.166,eng,6e64b31c6348ac9d094febdaa4fdb26e97e83af1,True,adolescent,740.0,844,390,844,390,981eb31a-25ec-4262-870f-20061e400ac7,981eb31a-25ec-4262-870f-20061e400ac7,projectseed_production_april2024,3,,546745,666,html-button-response,"Mozilla/5.0 (iPhone; CPU iPhone OS 17_4 like Mac OS X) AppleWebKit/605.1.15 (KHTML, like Gecko) CriOS/124.0.6367.88 Mobile/15E148 Safari/604.1",,1681,980,-200.0,100.0,50.0,-200.0,546382.0,D,740.0,547122.0,167.0,-250.0,3.0,2225.0,-200.0,
0,1234,-999999,0,0,IowaTask-v2.0,-mobile,jspsych-0.3a-mobile,1,List1,2024-04-29,0,0,projectseed-iowa-production,0.0-0.0-2.0-0.167,eng,6e64b31c6348ac9d094febdaa4fdb26e97e83af1,True,adolescent,770.0,844,390,844,390,981eb31a-25ec-4262-870f-20061e400ac7,981eb31a-25ec-4262-870f-20061e400ac7,projectseed_production_april2024,3,,549829,670,html-button-response,"Mozilla/5.0 (iPhone; CPU iPhone OS 17_4 like Mac OS X) AppleWebKit/605.1.15 (KHTML, like Gecko) CriOS/124.0.6367.88 Mobile/15E148 Safari/604.1",,1681,980,-200.0,100.0,50.0,50.0,549436.0,B,770.0,550206.0,168.0,0.0,1.0,2325.0,100.0,
