Deck_ACC,Deck_CRESP,Deck_DurationError,Deck_OnsetDelay,Deck_OnsetToOnsetTime,ExperimentName,ExperimentPlatform,ExperimentVersion,List1_Cycle,Running,cycle_start_date,day,expected_trial_count,experiment_name,internal_node_id,lang,last_commit,on_mobile,role,rt,screen_availHeight,screen_availWidth,screen_height,screen_width,session_id,session_uuid,study_id,subject_id,task_section,time_elapsed,trial_index,trial_type,useragent,view_history,window_innerHeight,window_innerWidth,DeckA,DeckB,DeckC,DeckD,Deck_OnsetTime,Deck_RESP,Deck_RT,Deck_RTTime,List1_Sample,loss_event,response,totalsum,var,stimulus
0,1234,-999999,0,0,IowaTask-v2.0,-mobile,jspsych-0.3a-mobile,1,List1,2024-04-29,0,0,projectseed-iowa-production,0.0-0.0-2.0-0.0,eng,6e64b31c6348ac9d094febdaa4fdb26e97e83af1,True,adolescent,828.0,844,390,844,390,f088e453-662c-46dd-90cb-5d8fad13440c,f088e453-662c-46dd-90cb-5d8fad13440c,projectseed_production_april2024,2,,10531,2,html-button-response,"Mozilla/5.0 (iPhone; CPU iPhone OS 17_4_1 like Mac OS X) AppleWebKit/605.1.15 (KHTML, like Gecko) Version/17.4.1 Mobile/15E148 Safari/604.1",,1667,980,100.0,100.0,50.0,50.0,10105.0,C,828.0,10933.0,1.0,0.0,2.0,2050.0,50.0,
0,1234,-999999,0,0,IowaTask-v2.0,-mobile,jspsych-0.3a-mobile,1,List1,2024-04-29,0,0,projectseed-iowa-production,0.0-0.0-2.0-0.1,eng,6e64b31c6348ac9d094febdaa4fdb26e97e83af1,True,adolescent,514.0,844,390,844,390,f088e453-662c-46dd-90cb-5d8fad13440c,f088e453-662c-46dd-90cb-5d8fad13440c,projectseed_production_april2024,2,,12367,6,html-button-response,"Mozilla/5.0 (iPhone; CPU iPhone OS 17_4_1 like Mac OS X) AppleWebKit/605.1.15 (KHTML, like Gecko) Version/17.4.1 Mobile/15E148 Safari/604.1",,1667,980,100.0,100.0,0.0,50.0,12254.0,B,514.0,12768.0,2.0,0.0,1.0,2150.0,100.0,
0,1234,-999999,0,0,IowaTask-v2.0,-mobile,jspsych-0.3a-mobile,1,List1,2024-04-29,0,0,projectseed-iowa-production,0.0-0.0-2.0-0.2,eng,6e64b31c6348ac9d094febdaa4fdb26e97e83af1,True,adolescent,383.0,844,390,844,390,f088e453-662c-46dd-90cb-5d8fad13440c,f088e453-662c-46dd-90cb-5d8fad13440c,projectseed_production_april2024,2,,14068,10,html-button-response,"Mozilla/5.0 (iPhone; CPU iPhone OS 17_4_1 like Mac OS X) AppleWebKit/605.1.15 (KHTML, like Gecko) Version/17.4.1 Mobile/15E148 Safari/604.1",,1667,980,100.0,100.0,0.0,50.0,14086.0,A,383.0,14469.0,3.0,0.0,0.0,2250.0,100.0,
0,1234,-999999,0,0,IowaTask-v2.0,-mobile,jspsych-0.3a-mobile,1,List1,2024-04-29,0,0,projectseed-iowa-production,0.0-0.0-2.0-0.3,eng,6e64b31c6348ac9d094febdaa4fdb26e97e83af1,True,adolescent,467.0,844,390,844,390,f088e453-662c-46dd-90cb-5d8fad13440c,f088e453-662c-46dd-90cb-5d8fad13440c,projectseed_production_april2024,2,,15855,14,html-button-response,"Mozilla/5.0 (iPhone; CPU iPhone OS 17_4_1 like Mac OS X) AppleWebKit/605.1.15 (KHTML, like Gecko) Version/17.4.1 Mobile/15E148 Safari/604.1",,1667,980,-250.0,100.0,0.0,50.0,15789.0,D,467.0,16256.0,4.0,0.0,3.0,2300.0,50.0,
0,1234,-999999,0,0,IowaTask-v2.0,-mobile,jspsych-0.3a-mobile,1,List1,2024-04-29,0,0,projectseed-iowa-production,0.0-0.0-2.0-0.4,eng,6e64b31c6348ac9d094febdaa4fdb26e97e83af1,True,adolescent,450.0,844,390,844,390,f088e453-662c-46dd-90cb-5d8fad13440c,f088e453-662c-46dd-90cb-5d8fad13440c,projectseed_production_april2024,2,,17623,18,html-button-response,"Mozilla/5.0 (iPhone; CPU iPhone OS 17_4_1 like Mac OS X) AppleWebKit/605.1.15 (KHTML, like Gecko) Version/17.4.1 Mobile/15E148 Safari/604.1",,1667,980,-250.0,100.0,0.0,50.0,17574.0,B,450.0,18024.0,5.0,0.0,1.0,2400.0,100.0,
0,1234,-999999,0,0,IowaTask-v2.0,-mobile,jspsych-0.3a-mobile,1,List1,2024-04-29,0,0,projectseed-iowa-production,0.0-0.0-2.0-0.5,eng,6e64b31c6348ac9d094febdaa4fdb26e97e83af1,True,adolescent,434.0,844,390,844,390,f088e453-662c-46dd-90cb-5d8fad13440c,f088e453-662c-46dd-90cb-5d8fad13440c,projectseed_production_april2024,2,,19376,22,html-button-response,"Mozilla/5.0 (iPhone; CPU iPhone OS 17_4_1 like Mac OS X) AppleWebKit/605.1.15 (KHTML, like Gecko) Version/17.4.1 Mobile/15E148 Safari/604.1",,1667,980,-250.0,100.0,0.0,50.0,19342.0,C,434.0,19776.0,6.0,-50.0,2.0,2400.0,0.0,
0,1234,-999999,0,0,IowaTask-v2.0,-mobile,jspsych-0.3a-mobile,1,List1,2024-04-29,0,0,projectseed-iowa-production,0.0-0.0-2.0-0.6,eng,6e64b31c6348ac9d094febdaa4fdb26e97e83af1,True,adolescent,457.0,844,390,844,390,f088e453-662c-46dd-90cb-5d8fad13440c,f088e453-662c-46dd-90cb-5d8fad13440c,projectseed_production_april2024,2,,22151,26,html-button-response,"Mozilla/5.0 (iPhone; CPU iPhone OS 17_4_1 like Mac OS X) AppleWebKit/605.1.15 (KHTML, like Gecko) Version/17.4.1 Mobile/15E148 Safari/604.1",,1667,980,-250.0,100.0,-25.0,50.0,22095.0,A,457.0,22552.0,7.0,-350.0,0.0,2150.0,-250.0,
0,1234,-999999,0,0,IowaTask-v2.0,-mobile,jspsych-0.3a-mobile,1,List1,2024-04-29,0,0,projectseed-iowa-production,0.0-0.0-2.0-0.7,eng,6e64b31c6348ac9d094febdaa4fdb26e97e83af1,True,adolescent,398.0,844,390,844,390,f088e453-662c-46dd-90cb-5d8fad13440c,f088e453-662c-46dd-90cb-5d8fad13440c,projectseed_production_april2024,2,,24865,30,html-button-response,"Mozilla/5.0 (iPhone; CPU iPhone OS 17_4_1 like Mac OS X) AppleWebKit/605.1.15 (KHTML, like Gecko) Version/17.4.1 Mobile/15E148 Safari/604.1",,1667,980,-200.0,100.0,-25.0,50.0,24868.0,D,398.0,25266.0,8.0,0.0,3.0,2200.0,50.0,
0,1234,-999999,0,0,IowaTask-v2.0,-mobile,jspsych-0.3a-mobile,1,List1,2024-04-29,0,0,projectseed-iowa-production,0.0-0.0-2.0-0.8,eng,6e64b31c6348ac9d094febdaa4fdb26e97e83af1,True,adolescent,516.0,844,390,844,390,f088e453-662c-46dd-90cb-5d8fad13440c,f088e453-662c-46dd-90cb-5d8fad13440c,projectseed_production_april2024,2,,26701,34,html-button-response,"Mozilla/5.0 (iPhone; CPU iPhone OS 17_4_1 like Mac OS X) AppleWebKit/605.1.15 (KHTML, like Gecko) Version/17.4.1 Mobile/15E148 Safari/604.1",,1667,980,-200.0,100.0,-25.0,50.0,26586.0,B,516.0,27102.0,9.0,0.0,1.0,2300.0,100.0,
0,1234,-999999,0,0,IowaTask-v2.0,-mobile,jspsych-0.3a-mobile,1,List1,2024-04-29,0,0,projectseed-iowa-production,0.0-0.0-2.0-0.9,eng,6e64b31c6348ac9d094febdaa4fdb26e97e83af1,True,adolescent,732.0,844,390,844,390,f088e453-662c-46dd-90cb-5d8fad13440c,f088e453-662c-46dd-90cb-5d8fad13440c,projectseed_production_april2024,2,,28752,38,html-button-response,"Mozilla/5.0 (iPhone; CPU iPhone OS 17_4_1 like Mac OS X) AppleWebKit/605.1.15 (KHTML, like Gecko) Version/17.4.1 Mobile/15E148 Safari/604.1",,1667,980,-200.0,100.0,-25.0,50.0,28420.0,C,732.0,29152.0,10.0,-75.0,2.0,2275.0,-25.0,
0,1234,-999999,0,0,IowaTask-v2.0,-mobile,jspsych-0.3a-mobile,1,List1,2024-04-29,0,0,projectseed-iowa-production,0.0-0.0-2.0-0.10,eng,6e64b31c6348ac9d094febdaa4fdb26e97e83af1,True,adolescent,620.0,844,390,844,390,f088e453-662c-46dd-90cb-5d8fad13440c,f088e453-662c-46dd-90cb-5d8fad13440c,projectseed_production_april2024,2,,31687,42,html-button-response,"Mozilla/5.0 (iPhone; CPU iPhone OS 17_4_1 like Mac OS X) AppleWebKit/605.1.15 (KHTML, like Gecko) Version/17.4.1 Mobile/15E148 Safari/604.1",,1667,980,-200.0,100.0,-25.0,50.0,31468.0,A,620.0,32088.0,11.0,-300.0,0.0,2075.0,-200.0,
0,1234,-999999,0,0,IowaTask-v2.0,-mobile,jspsych-0.3a-mobile,1,List1,2024-04-29,0,0,projectseed-iowa-production,0.0-0.0-2.0-0.11,eng,6e64b31c6348ac9d094febdaa4fdb26e97e83af1,True,adolescent,517.0,844,390,844,390,f088e453-662c-46dd-90cb-5d8fad13440c,f088e453-662c-46dd-90cb-5d8fad13440c,projectseed_production_april2024,2,,34520,46,html-button-response,"Mozilla/5.0 (iPhone; CPU iPhone OS 17_4_1 like Mac OS X) AppleWebKit/605.1.15 (KHTML, like Gecko) Version/17.4.1 Mobile/15E148 Safari/604.1",,1667,980,100.0,100.0,-25.0,50.0,34404.0,D,517.0,34921.0,12.0,0.0,3.0,2125.0,50.0,
0,1234,-999999,0,0,IowaTask-v2.0,-mobile,jspsych-0.3a-mobile,1,List1,2024-04-29,0,0,projectseed-iowa-production,0.0-0.0-2.0-0.12,eng,6e64b31c6348ac9d094febdaa4fdb26e97e83af1,True,adolescent,469.0,844,390,844,390,f088e453-662c-46dd-90cb-5d8fad13440c,f088e453-662c-46dd-90cb-5d8fad13440c,projectseed_production_april2024,2,,36307,50,html-button-response,"Mozilla/5.0 (iPhone; CPU iPhone OS 17_4_1 like Mac OS X) AppleWebKit/605.1.15 (KHTML, like Gecko) Version/17.4.1 Mobile/15E148 Safari/604.1",,1667,980,100.0,100.0,-25.0,50.0,36239.0,D,469.0,36708.0,13.0,0.0,3.0,2175.0,50.0,
0,1234,-999999,0,0,IowaTask-v2.0,-mobile,jspsych-0.3a-mobile,1,List1,2024-04-29,0,0,projectseed-iowa-production,0.0-0.0-2.0-0.13,eng,6e64b31c6348ac9d094febdaa4fdb26e97e83af1,True,adolescent,485.0,844,390,844,390,f088e453-662c-46dd-90cb-5d8fad13440c,f088e453-662c-46dd-90cb-5d8fad13440c,projectseed_production_april2024,2,,38109,54,html-button-response,"Mozilla/5.0 (iPhone; CPU iPhone OS 17_4_1 like Mac OS X) AppleWebKit/605.1.15 (KHTML, like Gecko) Version/17.4.1 Mobile/15E148 Safari/604.1",,1667,980,100.0,100.0,-25.0,-200.0,38025.0,D,485.0,38510.0,14.0,-250.0,3.0,1975.0,-200.0,
0,1234,-999999,0,0,IowaTask-v2.0,-mobile,jspsych-0.3a-mobile,1,List1,2024-04-29,0,0,projectseed-iowa-production,0.0-0.0-2.0-0.14,eng,6e64b31c6348ac9d094febdaa4fdb26e97e83af1,True,adolescent,127.0,844,390,844,390,f088e453-662c-46dd-90cb-5d8fad13440c,f088e453-662c-46dd-90cb-5d8fad13440c,projectseed_production_april2024,2,,40553,58,html-button-response,"Mozilla/5.0 (iPhone; CPU iPhone OS 17_4_1 like Mac OS X) AppleWebKit/605.1.15 (KHTML, like Gecko) Version/17.4.1 Mobile/15E148 Safari/604.1",,1667,980,100.0,100.0,-25.0,50.0,40827.0,C,127.0,40954.0,15.0,-75.0,2.0,1950.0,-25.0,
0,1234,-999999,0,0,IowaTask-v2.0,-mobile,jspsych-0.3a-mobile,1,List1,2024-04-29,0,0,projectseed-iowa-production,0.0-0.0-2.0-0.15,eng,6e64b31c6348ac9d094febdaa4fdb26e97e83af1,True,adolescent,122.0,844,390,844,390,f088e453-662c-46dd-90cb-5d8fad13440c,f088e453-662c-46dd-90cb-5d8fad13440c,projectseed_production_april2024,2,,42989,62,html-button-response,"Mozilla/5.0 (iPhone; CPU iPhone OS 17_4_1 like Mac OS X) AppleWebKit/605.1.15 (KHTML, like Gecko) Version/17.4.1 Mobile/15E148 Safari/604.1",,1667,980,100.0,100.0,50.0,50.0,43267.0,B,122.0,43389.0,16.0,0.0,1.0,2050.0,100.0,
0,1234,-999999,0,0,IowaTask-v2.0,-mobile,jspsych-0.3a-mobile,1,List1,2024-04-29,0,0,projectseed-iowa-production,0.0-0.0-2.0-0.16,eng,6e64b31c6348ac9d094febdaa4fdb26e97e83af1,True,adolescent,488.0,844,390,844,390,f088e453-662c-46dd-90cb-5d8fad13440c,f088e453-662c-46dd-90cb-5d8fad13440c,projectseed_production_april2024,2,,44799,66,html-button-response,"Mozilla/5.0 (iPhone; CPU iPhone OS 17_4_1 like Mac OS X) AppleWebKit/605.1.15 (KHTML, like Gecko) Version/17.4.1 Mobile/15E148 Safari/604.1",,1667,980,100.0,100.0,50.0,50.0,44712.0,B,488.0,45200.0,17.0,0.0,1.0,2150.0,100.0,
0,1234,-999999,0,0,IowaTask-v2.0,-mobile,jspsych-0.3a-mobile,1,List1,2024-04-29,0,0,projectseed-iowa-production,0.0-0.0-2.0-0.17,eng,6e64b31c6348ac9d094febdaa4fdb26e97e83af1,True,adolescent,518.0,844,390,844,390,f088e453-662c-46dd-90cb-5d8fad13440c,f088e453-662c-46dd-90cb-5d8fad13440c,projectseed_production_april2024,2,,46636,70,html-button-response,"Mozilla/5.0 (iPhone; CPU iPhone OS 17_4_1 like Mac OS X) AppleWebKit/605.1.15 (KHTML, like Gecko) Version/17.4.1 Mobile/15E148 Safari/604.1",,1667,980,100.0,100.0,50.0,50.0,46519.0,A,518.0,47037.0,18.0,0.0,0.0,2250.0,100.0,
0,1234,-999999,0,0,IowaTask-v2.0,-mobile,jspsych-0.3a-mobile,1,List1,2024-04-29,0,0,projectseed-iowa-production,0.0-0.0-2.0-0.18,eng,6e64b31c6348ac9d094febdaa4fdb26e97e83af1,True,adolescent,485.0,844,390,844,390,f088e453-662c-46dd-90cb-5d8fad13440c,f088e453-662c-46dd-90cb-5d8fad13440c,projectseed_production_april2024,2,,48438,74,html-button-response,"Mozilla/5.0 (iPhone; CPU iPhone OS 17_4_1 like Mac OS X) AppleWebKit/605.1.15 (KHTML, like Gecko) Version/17.4.1 Mobile/15E148 Safari/604.1",,1667,980,-100.0,100.0,50.0,50.0,48354.0,B,485.0,48839.0,19.0,0.0,1.0,2350.0,100.0,
0,1234,-999999,0,0,IowaTask-v2.0,-mobile,jspsych-0.3a-mobile,1,List1,2024-04-29,0,0,projectseed-iowa-production,0.0-0.0-2.0-0.19,eng,6e64b31c6348ac9d094febdaa4fdb26e97e83af1,True,adolescent,551.0,844,390,844,390,f088e453-662c-46dd-90cb-5d8fad13440c,f088e453-662c-46dd-90cb-5d8fad13440c,projectseed_production_april2024,2,,50307,78,html-button-response,"Mozilla/5.0 (iPhone; CPU iPhone OS 17_4_1 like Mac OS X) AppleWebKit/605.1.15 (KHTML, like Gecko) Version/17.4.1 Mobile/15E148 Safari/604.1",,1667,980,-100.0,100.0,50.0,50.0,50156.0,A,551.0,50707.0,20.0,-200.0,0.0,2250.0,-100.0,
0,1234,-999999,0,0,IowaTask-v2.0,-mobile,jspsych-0.3a-mobile,1,List1,2024-04-29,0,0,projectseed-iowa-production,0.0-0.0-2.0-0.20,eng,6e64b31c6348ac9d094febdaa4fdb26e97e83af1,True,adolescent,468.0,844,390,844,390,f088e453-662c-46dd-90cb-5d8fad13440c,f088e453-662c-46dd-90cb-5d8fad13440c,projectseed_production_april2024,2,,53090,82,html-button-response,"Mozilla/5.0 (iPhone; CPU iPhone OS 17_4_1 like Mac OS X) AppleWebKit/605.1.15 (KHTML, like Gecko) Version/17.4.1 Mobile/15E148 Safari/604.1",,1667,980,100.0,100.0,50.0,50.0,53023.0,C,468.0,53491.0,21.0,0.0,2.0,2300.0,50.0,
0,1234,-999999,0,0,IowaTask-v2.0,-mobile,jspsych-0.3a-mobile,1,List1,2024-04-29,0,0,projectseed-iowa-production,0.0-0.0-2.0-0.21,eng,6e64b31c6348ac9d094febdaa4fdb26e97e83af1,True,adolescent,485.0,844,390,844,390,f088e453-662c-46dd-90cb-5d8fad13440c,f088e453-662c-46dd-90cb-5d8fad13440c,projectseed_production_april2024,2,,54893,86,html-button-response,"Mozilla/5.0 (iPhone; CPU iPhone OS 17_4_1 like Mac OS X) AppleWebKit/605.1.15 (KHTML, like Gecko) Version/17.4.1 Mobile/15E148 Safari/604.1",,1667,980,100.0,100.0,50.0,50.0,54809.00000000001,B,485.0,55294.00000000001,22.0,0.0,1.0,2400.0,100.0,
0,1234,-999999,0,0,IowaTask-v2.0,-mobile,jspsych-0.3a-mobile,1,List1,2024-04-29,0,0,projectseed-iowa-production,0.0-0.0-2.0-0.22,eng,6e64b31c6348ac9d094febdaa4fdb26e97e83af1,True,adolescent,594.0,844,390,844,390,f088e453-662c-46dd-90cb-5d8fad13440c,f088e453-662c-46dd-90cb-5d8fad13440c,projectseed_production_april2024,2,,56811,90,html-button-response,"Mozilla/5.0 (iPhone; CPU iPhone OS 17_4_1 like Mac OS X) AppleWebKit/605.1.15 (KHTML, like Gecko) Version/17.4.1 Mobile/15E148 Safari/604.1",,1667,980,100.0,100.0,50.0,50.0,56618.0,A,594.0,57212.0,23.0,0.0,0.0,2500.0,100.0,
0,1234,-999999,0,0,IowaTask-v2.0,-mobile,jspsych-0.3a-mobile,1,List1,2024-04-29,0,0,projectseed-iowa-production,0.0-0.0-2.0-0.23,eng,6e64b31c6348ac9d094febdaa4fdb26e97e83af1,True,adolescent,489.0,844,390,844,390,f088e453-662c-46dd-90cb-5d8fad13440c,f088e453-662c-46dd-90cb-5d8fad13440c,projectseed_production_april2024,2,,58618,94,html-button-response,"Mozilla/5.0 (iPhone; CPU iPhone OS 17_4_1 like Mac OS X) AppleWebKit/605.1.15 (KHTML, like Gecko) Version/17.4.1 Mobile/15E148 Safari/604.1",,1667,980,-150.0,100.0,50.0,50.0,58530.0,D,489.0,59019.0,24.0,0.0,3.0,2550.0,50.0,
0,1234,-999999,0,0,IowaTask-v2.0,-mobile,jspsych-0.3a-mobile,1,List1,2024-04-29,0,0,projectseed-iowa-production,0.0-0.0-2.0-0.24,eng,6e64b31c6348ac9d094febdaa4fdb26e97e83af1,True,adolescent,529.0,844,390,844,390,f088e453-662c-46dd-90cb-5d8fad13440c,f088e453-662c-46dd-90cb-5d8fad13440c,projectseed_production_april2024,2,,60465,98,html-button-response,"Mozilla/5.0 (iPhone; CPU iPhone OS 17_4_1 like Mac OS X) AppleWebKit/605.1.15 (KHTML, like Gecko) Version/17.4.1 Mobile/15E148 Safari/604.1",,1667,980,-150.0,100.0,50.0,50.0,60337.0,C,529.0,60866.0,25.0,0.0,2.0,2600.0,50.0,
0,1234,-999999,0,0,IowaTask-v2.0,-mobile,jspsych-0.3a-mobile,1,List1,2024-04-29,0,0,projectseed-iowa-production,0.0-0.0-2.0-0.25,eng,6e64b31c6348ac9d094febdaa4fdb26e97e83af1,True,adolescent,483.0,844,390,844,390,f088e453-662c-46dd-90cb-5d8fad13440c,f088e453-662c-46dd-90cb-5d8fad13440c,projectseed_production_april2024,2,,62267,102,html-button-response,"Mozilla/5.0 (iPhone; CPU iPhone OS 17_4_1 like Mac OS X) AppleWebKit/605.1.15 (KHTML, like Gecko) Version/17.4.1 Mobile/15E148 Safari/604.1",,1667,980,-150.0,100.0,25.0,50.0,62185.0,B,483.0,62668.0,26.0,0.0,1.0,2700.0,100.0,
0,1234,-999999,0,0,IowaTask-v2.0,-mobile,jspsych-0.3a-mobile,1,List1,2024-04-29,0,0,projectseed-iowa-production,0.0-0.0-2.0-0.26,eng,6e64b31c6348ac9d094febdaa4fdb26e97e83af1,True,adolescent,534.0,844,390,844,390,f088e453-662c-46dd-90cb-5d8fad13440c,f088e453-662c-46dd-90cb-5d8fad13440c,projectseed_production_april2024,2,,64119,106,html-button-response,"Mozilla/5.0 (iPhone; CPU iPhone OS 17_4_1 like Mac OS X) AppleWebKit/605.1.15 (KHTML, like Gecko) Version/17.4.1 Mobile/15E148 Safari/604.1",,1667,980,-150.0,-1150.0,25.0,50.0,63985.99999999999,A,534.0,64519.99999999999,27.0,-250.0,0.0,2550.0,-150.0,
0,1234,-999999,0,0,IowaTask-v2.0,-mobile,jspsych-0.3a-mobile,1,List1,2024-04-29,0,0,projectseed-iowa-production,0.0-0.0-2.0-0.27,eng,6e64b31c6348ac9d094febdaa4fdb26e97e83af1,True,adolescent,470.0,844,390,844,390,f088e453-662c-46dd-90cb-5d8fad13440c,f088e453-662c-46dd-90cb-5d8fad13440c,projectseed_production_april2024,2,,66905,110,html-button-response,"Mozilla/5.0 (iPhone; CPU iPhone OS 17_4_1 like Mac OS X) AppleWebKit/605.1.15 (KHTML, like Gecko) Version/17.4.1 Mobile/15E148 Safari/604.1",,1667,980,100.0,-1150.0,25.0,50.0,66836.0,A,470.0,67306.0,28.0,0.0,0.0,2650.0,100.0,
0,1234,-999999,0,0,IowaTask-v2.0,-mobile,jspsych-0.3a-mobile,1,List1,2024-04-29,0,0,projectseed-iowa-production,0.0-0.0-2.0-0.28,eng,6e64b31c6348ac9d094febdaa4fdb26e97e83af1,True,adolescent,569.0,844,390,844,390,f088e453-662c-46dd-90cb-5d8fad13440c,f088e453-662c-46dd-90cb-5d8fad13440c,projectseed_production_april2024,2,,68791,114,html-button-response,"Mozilla/5.0 (iPhone; CPU iPhone OS 17_4_1 like Mac OS X) AppleWebKit/605.1.15 (KHTML, like Gecko) Version/17.4.1 Mobile/15E148 Safari/604.1",,1667,980,100.0,-1150.0,25.0,50.0,68622.0,C,569.0,69191.0,29.0,-25.0,2.0,2675.0,25.0,
0,1234,-999999,0,0,IowaTask-v2.0,-mobile,jspsych-0.3a-mobile,1,List1,2024-04-29,0,0,projectseed-iowa-production,0.0-0.0-2.0-0.29,eng,6e64b31c6348ac9d094febdaa4fdb26e97e83af1,True,adolescent,482.0,844,390,844,390,f088e453-662c-46dd-90cb-5d8fad13440c,f088e453-662c-46dd-90cb-5d8fad13440c,projectseed_production_april2024,2,,71589,118,html-button-response,"Mozilla/5.0 (iPhone; CPU iPhone OS 17_4_1 like Mac OS X) AppleWebKit/605.1.15 (KHTML, like Gecko) Version/17.4.1 Mobile/15E148 Safari/604.1",,1667,980,100.0,-1150.0,25.0,50.0,71508.0,C,482.0,71990.0,30.0,-25.0,2.0,2700.0,25.0,
0,1234,-999999,0,0,IowaTask-v2.0,-mobile,jspsych-0.3a-mobile,1,List1,2024-04-29,0,0,projectseed-iowa-production,0.0-0.0-2.0-0.30,eng,6e64b31c6348ac9d094febdaa4fdb26e97e83af1,True,adolescent,408.0,844,390,844,390,f088e453-662c-46dd-90cb-5d8fad13440c,f088e453-662c-46dd-90cb-5d8fad13440c,projectseed_production_april2024,2,,74311,122,html-button-response,"Mozilla/5.0 (iPhone; CPU iPhone OS 17_4_1 like Mac OS X) AppleWebKit/605.1.15 (KHTML, like Gecko) Version/17.4.1 Mobile/15E148 Safari/604.1",,1667,980,100.0,-1150.0,50.0,50.0,74304.0,D,408.0,74712.0,31.0,0.0,3.0,2750.0,50.0,
0,1234,-999999,0,0,IowaTask-v2.0,-mobile,jspsych-0.3a-mobile,1,List1,2024-04-29,0,0,projectseed-iowa-production,0.0-0.0-2.0-0.31,eng,6e64b31c6348ac9d094febdaa4fdb26e97e83af1,True,adolescent,501.0,844,390,844,390,f088e453-662c-46dd-90cb-5d8fad13440c,f088e453-662c-46dd-90cb-5d8fad13440c,projectseed_production_april2024,2,,76130,126,html-button-response,"Mozilla/5.0 (iPhone; CPU iPhone OS 17_4_1 like Mac OS X) AppleWebKit/605.1.15 (KHTML, like Gecko) Version/17.4.1 Mobile/15E148 Safari/604.1",,1667,980,100.0,-1150.0,50.0,50.0,76030.0,B,501.0,76531.0,32.0,-1250.0,1.0,1600.0,-1150.0,
0,1234,-999999,0,0,IowaTask-v2.0,-mobile,jspsych-0.3a-mobile,1,List1,2024-04-29,0,0,projectseed-iowa-production,0.0-0.0-2.0-0.32,eng,6e64b31c6348ac9d094febdaa4fdb26e97e83af1,True,adolescent,474.0,844,390,844,390,f088e453-662c-46dd-90cb-5d8fad13440c,f088e453-662c-46dd-90cb-5d8fad13440c,projectseed_production_april2024,2,,78920,130,html-button-response,"Mozilla/5.0 (iPhone; CPU iPhone OS 17_4_1 like Mac OS X) AppleWebKit/605.1.15 (KHTML, like Gecko) Version/17.4.1 Mobile/15E148 Safari/604.1",,1667,980,100.0,100.0,50.0,50.0,78847.0,B,474.0,79321.0,33.0,0.0,1.0,1700.0,100.0,
0,1234,-999999,0,0,IowaTask-v2.0,-mobile,jspsych-0.3a-mobile,1,List1,2024-04-29,0,0,projectseed-iowa-production,0.0-0.0-2.0-0.33,eng,6e64b31c6348ac9d094febdaa4fdb26e97e83af1,True,adolescent,562.0,844,390,844,390,f088e453-662c-46dd-90cb-5d8fad13440c,f088e453-662c-46dd-90cb-5d8fad13440c,projectseed_production_april2024,2,,80801,134,html-button-response,"Mozilla/5.0 (iPhone; CPU iPhone OS 17_4_1 like Mac OS X) AppleWebKit/605.1.15 (KHTML, like Gecko) Version/17.4.1 Mobile/15E148 Safari/604.1",,1667,980,100.0,100.0,50.0,50.0,80639.00000000001,D,562.0,81201.00000000001,34.0,0.0,3.0,1750.0,50.0,
0,1234,-999999,0,0,IowaTask-v2.0,-mobile,jspsych-0.3a-mobile,1,List1,2024-04-29,0,0,projectseed-iowa-production,0.0-0.0-2.0-0.34,eng,6e64b31c6348ac9d094febdaa4fdb26e97e83af1,True,adolescent,517.0,844,390,844,390,f088e453-662c-46dd-90cb-5d8fad13440c,f088e453-662c-46dd-90cb-5d8fad13440c,projectseed_production_april2024,2,,82635,138,html-button-response,"Mozilla/5.0 (iPhone; CPU iPhone OS 17_4_1 like Mac OS X) AppleWebKit/605.1.15 (KHTML, like Gecko) Version/17.4.1 Mobile/15E148 Safari/604.1",,1667,980,100.0,100.0,50.0,50.0,82519.0,A,517.0,83036.0,35.0,0.0,0.0,1850.0,100.0,
0,1234,-999999,0,0,IowaTask-v2.0,-mobile,jspsych-0.3a-mobile,1,List1,2024-04-29,0,0,projectseed-iowa-production,0.0-0.0-2.0-0.35,eng,6e64b31c6348ac9d094febdaa4fdb26e97e83af1,True,adolescent,5613.0,844,390,844,390,f088e453-662c-46dd-90cb-5d8fad13440c,f088e453-662c-46dd-90cb-5d8fad13440c,projectseed_production_april2024,2,,89566,142,html-button-response,"Mozilla/5.0 (iPhone; CPU iPhone OS 17_4_1 like Mac OS X) AppleWebKit/605.1.15 (KHTML, like Gecko) Version/17.4.1 Mobile/15E148 Safari/604.1",,1667,980,-50.0,100.0,50.0,50.0,84355.0,A,5613.0,89968.0,36.0,-150.0,0.0,1800.0,-50.0,
0,1234,-999999,0,0,IowaTask-v2.0,-mobile,jspsych-0.3a-mobile,1,List1,2024-04-29,0,0,projectseed-iowa-production,0.0-0.0-2.0-0.36,eng,6e64b31c6348ac9d094febdaa4fdb26e97e83af1,True,adolescent,515.0,844,390,844,390,f088e453-662c-46dd-90cb-5d8fad13440c,f088e453-662c-46dd-90cb-5d8fad13440c,projectseed_production_april2024,2,,92395,146,html-button-response,"Mozilla/5.0 (iPhone; CPU iPhone OS 17_4_1 like Mac OS X) AppleWebKit/605.1.15 (KHTML, like Gecko) Version/17.4.1 Mobile/15E148 Safari/604.1",,1667,980,-200.0,100.0,50.0,50.0,92281.0,B,515.0,92796.0,37.0,0.0,1.0,1900.0,100.0,
0,1234,-999999,0,0,IowaTask-v2.0,-mobile,jspsych-0.3a-mobile,1,List1,2024-04-29,0,0,projectseed-iowa-production,0.0-0.0-2.0-0.37,eng,6e64b31c6348ac9d094febdaa4fdb26e97e83af1,True,adolescent,1187.0,844,390,844,390,f088e453-662c-46dd-90cb-5d8fad13440c,f088e453-662c-46dd-90cb-5d8fad13440c,projectseed_production_april2024,2,,94899,150,html-button-response,"Mozilla/5.0 (iPhone; CPU iPhone OS 17_4_1 like Mac OS X) AppleWebKit/605.1.15 (KHTML, like Gecko) Version/17.4.1 Mobile/15E148 Safari/604.1",,1667,980,-200.0,100.0,50.0,50.0,94113.0,B,1187.0,95300.0,38.0,0.0,1.0,2000.0,100.0,
0,1234,-999999,0,0,IowaTask-v2.0,-mobile,jspsych-0.3a-mobile,1,List1,2024-04-29,0,0,projectseed-iowa-production,0.0-0.0-2.0-0.38,eng,6e64b31c6348ac9d094febdaa4fdb26e97e83af1,True,adolescent,2766.0,844,390,844,390,f088e453-662c-46dd-90cb-5d8fad13440c,f088e453-662c-46dd-90cb-5d8fad13440c,projectseed_production_april2024,2,,98985,154,html-button-response,"Mozilla/5.0 (iPhone; CPU iPhone OS 17_4_1 like Mac OS X) AppleWebKit/605.1.15 (KHTML, like Gecko) Version/17.4.1 Mobile/15E148 Safari/604.1",,1667,980,-200.0,100.0,50.0,50.0,96620.0,C,2766.0,99386.0,39.0,0.0,2.0,2050.0,50.0,
0,1234,-999999,0,0,IowaTask-v2.0,-mobile,jspsych-0.3a-mobile,1,List1,2024-04-29,0,0,projectseed-iowa-production,0.0-0.0-2.0-0.39,eng,6e64b31c6348ac9d094febdaa4fdb26e97e83af1,True,adolescent,770.0,844,390,844,390,f088e453-662c-46dd-90cb-5d8fad13440c,f088e453-662c-46dd-90cb-5d8fad13440c,projectseed_production_april2024,2,,101073,158,html-button-response,"Mozilla/5.0 (iPhone; CPU iPhone OS 17_4_1 like Mac OS X) AppleWebKit/605.1.15 (KHTML, like Gecko) Version/17.4.1 Mobile/15E148 Safari/604.1",,1667,980,-200.0,100.0,50.0,50.0,100703.0,C,770.0,101473.0,40.0,0.0,2.0,2100.0,50.0,
0,1234,-999999,0,0,IowaTask-v2.0,-mobile,jspsych-0.3a-mobile,1,List1,2024-04-29,0,0,projectseed-iowa-production,0.0-0.0-2.0-0.40,eng,6e64b31c6348ac9d094febdaa4fdb26e97e83af1,True,adolescent,517.0,844,390,844,390,f088e453-662c-46dd-90cb-5d8fad13440c,f088e453-662c-46dd-90cb-5d8fad13440c,projectseed_production_april2024,2,,102909,162,html-button-response,"Mozilla/5.0 (iPhone; CPU iPhone OS 17_4_1 like Mac OS X) AppleWebKit/605.1.15 (KHTML, like Gecko) Version/17.4.1 Mobile/15E148 Safari/604.1",,1667,980,-200.0,100.0,50.0,50.0,102792.0,C,517.0,103309.0,41.0,0.0,2.0,2150.0,50.0,
0,1234,-999999,0,0,IowaTask-v2.0,-mobile,jspsych-0.3a-mobile,1,List1,2024-04-29,0,0,projectseed-iowa-production,0.0-0.0-2.0-0.41,eng,6e64b31c6348ac9d094febdaa4fdb26e97e83af1,True,adolescent,482.0,844,390,844,390,f088e453-662c-46dd-90cb-5d8fad13440c,f088e453-662c-46dd-90cb-5d8fad13440c,projectseed_production_april2024,2,,104709,166,html-button-response,"Mozilla/5.0 (iPhone; CPU iPhone OS 17_4_1 like Mac OS X) AppleWebKit/605.1.15 (KHTML, like Gecko) Version/17.4.1 Mobile/15E148 Safari/604.1",,1667,980,-200.0,100.0,-25.0,50.0,104628.0,C,482.0,105110.0,42.0,-75.0,2.0,2125.0,-25.0,
0,1234,-999999,0,0,IowaTask-v2.0,-mobile,jspsych-0.3a-mobile,1,List1,2024-04-29,0,0,projectseed-iowa-production,0.0-0.0-2.0-0.42,eng,6e64b31c6348ac9d094febdaa4fdb26e97e83af1,True,adolescent,608.0,844,390,844,390,f088e453-662c-46dd-90cb-5d8fad13440c,f088e453-662c-46dd-90cb-5d8fad13440c,projectseed_production_april2024,2,,107629,170,html-button-response,"Mozilla/5.0 (iPhone; CPU iPhone OS 17_4_1 like Mac OS X) AppleWebKit/605.1.15 (KHTML, like Gecko) Version/17.4.1 Mobile/15E148 Safari/604.1",,1667,980,-200.0,100.0,-25.0,50.0,107422.0,A,608.0,108030.0,43.0,-300.0,0.0,1925.0,-200.0,
0,1234,-999999,0,0,IowaTask-v2.0,-mobile,jspsych-0.3a-mobile,1,List1,2024-04-29,0,0,projectseed-iowa-production,0.0-0.0-2.0-0.43,eng,6e64b31c6348ac9d094febdaa4fdb26e97e83af1,True,adolescent,537.0,844,390,844,390,f088e453-662c-46dd-90cb-5d8fad13440c,f088e453-662c-46dd-90cb-5d8fad13440c,projectseed_production_april2024,2,,110482,174,html-button-response,"Mozilla/5.0 (iPhone; CPU iPhone OS 17_4_1 like Mac OS X) AppleWebKit/605.1.15 (KHTML, like Gecko) Version/17.4.1 Mobile/15E148 Safari/604.1",,1667,980,100.0,100.0,-25.0,50.0,110346.0,B,537.0,110883.0,44.0,0.0,1.0,2025.0,100.0,
0,1234,-999999,0,0,IowaTask-v2.0,-mobile,jspsych-0.3a-mobile,1,List1,2024-04-29,0,0,projectseed-iowa-production,0.0-0.0-2.0-0.44,eng,6e64b31c6348ac9d094febdaa4fdb26e97e83af1,True,adolescent,1885.0,844,390,844,390,f088e453-662c-46dd-90cb-5d8fad13440c,f088e453-662c-46dd-90cb-5d8fad13440c,projectseed_production_april2024,2,,113688,178,html-button-response,"Mozilla/5.0 (iPhone; CPU iPhone OS 17_4_1 like Mac OS X) AppleWebKit/605.1.15 (KHTML, like Gecko) Version/17.4.1 Mobile/15E148 Safari/604.1",,1667,980,100.0,100.0,-25.0,50.0,112210.0,B,1885.0,114095.0,45.0,0.0,1.0,2125.0,100.0,
0,1234,-999999,0,0,IowaTask-v2.0,-mobile,jspsych-0.3a-mobile,1,List1,2024-04-29,0,0,projectseed-iowa-production,0.0-0.0-2.0-0.45,eng,6e64b31c6348ac9d094febdaa4fdb26e97e83af1,True,adolescent,506.0,844,390,844,390,f088e453-662c-46dd-90cb-5d8fad13440c,f088e453-662c-46dd-90cb-5d8fad13440c,projectseed_production_april2024,2,,115520,182,html-button-response,"Mozilla/5.0 (iPhone; CPU iPhone OS 17_4_1 like Mac OS X) AppleWebKit/605.1.15 (KHTML, like Gecko) Version/17.4.1 Mobile/15E148 Safari/604.1",,1667,980,100.0,100.0,-25.0,50.0,115415.0,B,506.0,115921.0,46.0,0.0,1.0,2225.0,100.0,
0,1234,-999999,0,0,IowaTask-v2.0,-mobile,jspsych-0.3a-mobile,1,List1,2024-04-29,0,0,projectseed-iowa-production,0.0-0.0-2.0-0.46,eng,6e64b31c6348ac9d094febdaa4fdb26e97e83af1,True,adolescent,568.0,844,390,844,390,f088e453-662c-46dd-90cb-5d8fad13440c,f088e453-662c-46dd-90cb-5d8fad13440c,projectseed_production_april2024,2,,117407,186,html-button-response,"Mozilla/5.0 (iPhone; CPU iPhone OS 17_4_1 like Mac OS X) AppleWebKit/605.1.15 (KHTML, like Gecko) Version/17.4.1 Mobile/15E148 Safari/604.1",,1667,980,100.0,-1150.0,-25.0,50.0,117240.0,A,568.0,117808.0,47.0,0.0,0.0,2325.0,100.0,
0,1234,-999999,0,0,IowaTask-v2.0,-mobile,jspsych-0.3a-mobile,1,List1,2024-04-29,0,0,projectseed-iowa-production,0.0-0.0-2.0-0.47,eng,6e64b31c6348ac9d094febdaa4fdb26e97e83af1,True,adolescent,549.0,844,390,844,390,f088e453-662c-46dd-90cb-5d8fad13440c,f088e453-662c-46dd-90cb-5d8fad13440c,projectseed_production_april2024,2,,119273,190,html-button-response,"Mozilla/5.0 (iPhone; CPU iPhone OS 17_4_1 like Mac OS X) AppleWebKit/605.1.15 (KHTML, like Gecko) Version/17.4.1 Mobile/15E148 Safari/604.1",,1667,980,100.0,-1150.0,-25.0,50.0,119125.0,B,549.0,119674.0,48.0,-1250.0,1.0,1175.0,-1150.0,
0,1234,-999999,0,0,IowaTask-v2.0,-mobile,jspsych-0.3a-mobile,1,List1,2024-04-29,0,0,projectseed-iowa-production,0.0-0.0-2.0-0.48,eng,6e64b31c6348ac9d094febdaa4fdb26e97e83af1,True,adolescent,386.0,844,390,844,390,f088e453-662c-46dd-90cb-5d8fad13440c,f088e453-662c-46dd-90cb-5d8fad13440c,projectseed_production_april2024,2,,121979,194,html-button-response,"Mozilla/5.0 (iPhone; CPU iPhone OS 17_4_1 like Mac OS X) AppleWebKit/605.1.15 (KHTML, like Gecko) Version/17.4.1 Mobile/15E148 Safari/604.1",,1667,980,100.0,100.0,-25.0,50.0,121994.0,D,386.0,122380.0,49.0,0.0,3.0,1225.0,50.0,
0,1234,-999999,0,0,IowaTask-v2.0,-mobile,jspsych-0.3a-mobile,1,List1,2024-04-29,0,0,projectseed-iowa-production,0.0-0.0-2.0-0.49,eng,6e64b31c6348ac9d094febdaa4fdb26e97e83af1,True,adolescent,515.0,844,390,844,390,f088e453-662c-46dd-90cb-5d8fad13440c,f088e453-662c-46dd-90cb-5d8fad13440c,projectseed_production_april2024,2,,123812,198,html-button-response,"Mozilla/5.0 (iPhone; CPU iPhone OS 17_4_1 like Mac OS X) AppleWebKit/605.1.15 (KHTML, like Gecko) Version/17.4.1 Mobile/15E148 Safari/604.1",,1667,980,100.0,100.0,-25.0,50.0,123698.00000000001,C,515.0,124213.00000000001,50.0,-75.0,2.0,1200.0,-25.0,
0,1234,-999999,0,0,IowaTask-v2.0,-mobile,jspsych-0.3a-mobile,1,List1,2024-04-29,0,0,projectseed-iowa-production,0.0-0.0-2.0-0.50,eng,6e64b31c6348ac9d094febdaa4fdb26e97e83af1,True,adolescent,529.0,844,390,844,390,f088e453-662c-46dd-90cb-5d8fad13440c,f088e453-662c-46dd-90cb-5d8fad13440c,projectseed_production_april2024,2,,126667,202,html-button-response,"Mozilla/5.0 (iPhone; CPU iPhone OS 17_4_1 like Mac OS X) AppleWebKit/605.1.15 (KHTML, like Gecko) Version/17.4.1 Mobile/15E148 Safari/604.1",,1667,980,100.0,100.0,50.0,50.0,126539.0,D,529.0,127068.0,51.0,0.0,3.0,1250.0,50.0,
0,1234,-999999,0,0,IowaTask-v2.0,-mobile,jspsych-0.3a-mobile,1,List1,2024-04-29,0,0,projectseed-iowa-production,0.0-0.0-2.0-0.51,eng,6e64b31c6348ac9d094febdaa4fdb26e97e83af1,True,adolescent,1069.0,844,390,844,390,f088e453-662c-46dd-90cb-5d8fad13440c,f088e453-662c-46dd-90cb-5d8fad13440c,projectseed_production_april2024,2,,129053,206,html-button-response,"Mozilla/5.0 (iPhone; CPU iPhone OS 17_4_1 like Mac OS X) AppleWebKit/605.1.15 (KHTML, like Gecko) Version/17.4.1 Mobile/15E148 Safari/604.1",,1667,980,100.0,100.0,50.0,50.0,128385.00000000001,A,1069.0,129454.00000000001,52.0,0.0,0.0,1350.0,100.0,
0,1234,-999999,0,0,IowaTask-v2.0,-mobile,jspsych-0.3a-mobile,1,List1,2024-04-29,0,0,projectseed-iowa-production,0.0-0.0-2.0-0.52,eng,6e64b31c6348ac9d094febdaa4fdb26e97e83af1,True,adolescent,851.0,844,390,844,390,f088e453-662c-46dd-90cb-5d8fad13440c,f088e453-662c-46dd-90cb-5d8fad13440c,projectseed_production_april2024,2,,131223,210,html-button-response,"Mozilla/5.0 (iPhone; CPU iPhone OS 17_4_1 like Mac OS X) AppleWebKit/605.1.15 (KHTML, like Gecko) Version/17.4.1 Mobile/15E148 Safari/604.1",,1667,980,100.0,100.0,50.0,50.0,130773.0,A,851.0,131624.0,53.0,0.0,0.0,1450.0,100.0,
0,1234,-999999,0,0,IowaTask-v2.0,-mobile,jspsych-0.3a-mobile,1,List1,2024-04-29,0,0,projectseed-iowa-production,0.0-0.0-2.0-0.53,eng,6e64b31c6348ac9d094febdaa4fdb26e97e83af1,True,adolescent,666.0,844,390,844,390,f088e453-662c-46dd-90cb-5d8fad13440c,f088e453-662c-46dd-90cb-5d8fad13440c,projectseed_production_april2024,2,,133206,214,html-button-response,"Mozilla/5.0 (iPhone; CPU iPhone OS 17_4_1 like Mac OS X) AppleWebKit/605.1.15 (KHTML, like Gecko) Version/17.4.1 Mobile/15E148 Safari/604.1",,1667,980,-250.0,100.0,50.0,50.0,132941.0,D,666.0,133607.0,54.0,0.0,3.0,1500.0,50.0,
0,1234,-999999,0,0,IowaTask-v2.0,-mobile,jspsych-0.3a-mobile,1,List1,2024-04-29,0,0,projectseed-iowa-production,0.0-0.0-2.0-0.54,eng,6e64b31c6348ac9d094febdaa4fdb26e97e83af1,True,adolescent,1146.0,844,390,844,390,f088e453-662c-46dd-90cb-5d8fad13440c,f088e453-662c-46dd-90cb-5d8fad13440c,projectseed_production_april2024,2,,135673,218,html-button-response,"Mozilla/5.0 (iPhone; CPU iPhone OS 17_4_1 like Mac OS X) AppleWebKit/605.1.15 (KHTML, like Gecko) Version/17.4.1 Mobile/15E148 Safari/604.1",,1667,980,-250.0,100.0,50.0,50.0,134928.0,D,1146.0,136074.0,55.0,0.0,3.0,1550.0,50.0,
0,1234,-999999,0,0,IowaTask-v2.0,-mobile,jspsych-0.3a-mobile,1,List1,2024-04-29,0,0,projectseed-iowa-production,0.0-0.0-2.0-0.55,eng,6e64b31c6348ac9d094febdaa4fdb26e97e83af1,True,adolescent,1238.0,844,390,844,390,f088e453-662c-46dd-90cb-5d8fad13440c,f088e453-662c-46dd-90cb-5d8fad13440c,projectseed_production_april2024,2,,138228,222,html-button-response,"Mozilla/5.0 (iPhone; CPU iPhone OS 17_4_1 like Mac OS X) AppleWebKit/605.1.15 (KHTML, like Gecko) Version/17.4.1 Mobile/15E148 Safari/604.1",,1667,980,-250.0,100.0,50.0,50.0,137391.0,A,1238.0,138629.0,56.0,-350.0,0.0,1300.0,-250.0,
0,1234,-999999,0,0,IowaTask-v2.0,-mobile,jspsych-0.3a-mobile,1,List1,2024-04-29,0,0,projectseed-iowa-production,0.0-0.0-2.0-0.56,eng,6e64b31c6348ac9d094febdaa4fdb26e97e83af1,True,adolescent,6582.0,844,390,844,390,f088e453-662c-46dd-90cb-5d8fad13440c,f088e453-662c-46dd-90cb-5d8fad13440c,projectseed_production_april2024,2,,147125,226,html-button-response,"Mozilla/5.0 (iPhone; CPU iPhone OS 17_4_1 like Mac OS X) AppleWebKit/605.1.15 (KHTML, like Gecko) Version/17.4.1 Mobile/15E148 Safari/604.1",,1667,980,-100.0,100.0,50.0,50.0,140944.0,A,6582.0,147526.0,57.0,-200.0,0.0,1200.0,-100.0,
0,1234,-999999,0,0,IowaTask-v2.0,-mobile,jspsych-0.3a-mobile,1,List1,2024-04-29,0,0,projectseed-iowa-production,0.0-0.0-2.0-0.57,eng,6e64b31c6348ac9d094febdaa4fdb26e97e83af1,True,adolescent,393.0,844,390,844,390,f088e453-662c-46dd-90cb-5d8fad13440c,f088e453-662c-46dd-90cb-5d8fad13440c,projectseed_production_april2024,2,,149834,230,html-button-response,"Mozilla/5.0 (iPhone; CPU iPhone OS 17_4_1 like Mac OS X) AppleWebKit/605.1.15 (KHTML, like Gecko) Version/17.4.1 Mobile/15E148 Safari/604.1",,1667,980,100.0,100.0,50.0,50.0,149842.0,D,393.0,150235.0,58.0,0.0,3.0,1250.0,50.0,
0,1234,-999999,0,0,IowaTask-v2.0,-mobile,jspsych-0.3a-mobile,1,List1,2024-04-29,0,0,projectseed-iowa-production,0.0-0.0-2.0-0.58,eng,6e64b31c6348ac9d094febdaa4fdb26e97e83af1,True,adolescent,489.0,844,390,844,390,f088e453-662c-46dd-90cb-5d8fad13440c,f088e453-662c-46dd-90cb-5d8fad13440c,projectseed_production_april2024,2,,151641,234,html-button-response,"Mozilla/5.0 (iPhone; CPU iPhone OS 17_4_1 like Mac OS X) AppleWebKit/605.1.15 (KHTML, like Gecko) Version/17.4.1 Mobile/15E148 Safari/604.1",,1667,980,100.0,100.0,50.0,50.0,151553.0,B,489.0,152042.0,59.0,0.0,1.0,1350.0,100.0,
0,1234,-999999,0,0,IowaTask-v2.0,-mobile,jspsych-0.3a-mobile,1,List1,2024-04-29,0,0,projectseed-iowa-production,0.0-0.0-2.0-0.59,eng,6e64b31c6348ac9d094febdaa4fdb26e97e83af1,True,adolescent,637.0,844,390,844,390,f088e453-662c-46dd-90cb-5d8fad13440c,f088e453-662c-46dd-90cb-5d8fad13440c,projectseed_production_april2024,2,,153594,238,html-button-response,"Mozilla/5.0 (iPhone; CPU iPhone OS 17_4_1 like Mac OS X) AppleWebKit/605.1.15 (KHTML, like Gecko) Version/17.4.1 Mobile/15E148 Safari/604.1",,1667,980,100.0,100.0,50.0,50.0,153357.0,B,637.0,153994.0,60.0,0.0,1.0,1450.0,100.0,
0,1234,-999999,0,0,IowaTask-v2.0,-mobile,jspsych-0.3a-mobile,1,List1,2024-04-29,0,0,projectseed-iowa-production,0.0-0.0-2.0-0.60,eng,6e64b31c6348ac9d094febdaa4fdb26e97e83af1,True,adolescent,765.0,844,390,844,390,f088e453-662c-46dd-90cb-5d8fad13440c,f088e453-662c-46dd-90cb-5d8fad13440c,projectseed_production_april2024,2,,155679,242,html-button-response,"Mozilla/5.0 (iPhone; CPU iPhone OS 17_4_1 like Mac OS X) AppleWebKit/605.1.15 (KHTML, like Gecko) Version/17.4.1 Mobile/15E148 Safari/604.1",,1667,980,100.0,100.0,50.0,50.0,155315.0,C,765.0,156080.0,61.0,0.0,2.0,1500.0,50.0,
0,1234,-999999,0,0,IowaTask-v2.0,-mobile,jspsych-0.3a-mobile,1,List1,2024-04-29,0,0,projectseed-iowa-production,0.0-0.0-2.0-0.61,eng,6e64b31c6348ac9d094febdaa4fdb26e97e83af1,True,adolescent,764.0,844,390,844,390,f088e453-662c-46dd-90cb-5d8fad13440c,f088e453-662c-46dd-90cb-5d8fad13440c,projectseed_production_april2024,2,,157764,246,html-button-response,"Mozilla/5.0 (iPhone; CPU iPhone OS 17_4_1 like Mac OS X) AppleWebKit/605.1.15 (KHTML, like Gecko) Version/17.4.1 Mobile/15E148 Safari/604.1",,1667,980,100.0,100.0,50.0,50.0,157402.0,B,764.0,158166.0,62.0,0.0,1.0,1600.0,100.0,
0,1234,-999999,0,0,IowaTask-v2.0,-mobile,jspsych-0.3a-mobile,1,List1,2024-04-29,0,0,projectseed-iowa-production,0.0-0.0-2.0-0.62,eng,6e64b31c6348ac9d094febdaa4fdb26e97e83af1,True,adolescent,865.0,844,390,844,390,f088e453-662c-46dd-90cb-5d8fad13440c,f088e453-662c-46dd-90cb-5d8fad13440c,projectseed_production_april2024,2,,159949,250,html-button-response,"Mozilla/5.0 (iPhone; CPU iPhone OS 17_4_1 like Mac OS X) AppleWebKit/605.1.15 (KHTML, like Gecko) Version/17.4.1 Mobile/15E148 Safari/604.1",,1667,980,100.0,100.0,50.0,50.0,159485.0,A,865.0,160350.0,63.0,0.0,0.0,1700.0,100.0,
0,1234,-999999,0,0,IowaTask-v2.0,-mobile,jspsych-0.3a-mobile,1,List1,2024-04-29,0,0,projectseed-iowa-production,0.0-0.0-2.0-0.63,eng,6e64b31c6348ac9d094febdaa4fdb26e97e83af1,True,adolescent,451.0,844,390,844,390,f088e453-662c-46dd-90cb-5d8fad13440c,f088e453-662c-46dd-90cb-5d8fad13440c,projectseed_production_april2024,2,,161719,254,html-button-response,"Mozilla/5.0 (iPhone; CPU iPhone OS 17_4_1 like Mac OS X) AppleWebKit/605.1.15 (KHTML, like Gecko) Version/17.4.1 Mobile/15E148 Safari/604.1",,1667,980,-150.0,100.0,50.0,50.0,161669.0,B,451.0,162120.0,64.0,0.0,1.0,1800.0,100.0,
0,1234,-999999,0,0,IowaTask-v2.0,-mobile,jspsych-0.3a-mobile,1,List1,2024-04-29,0,0,projectseed-iowa-production,0.0-0.0-2.0-0.64,eng,6e64b31c6348ac9d094febdaa4fdb26e97e83af1,True,adolescent,467.0,844,390,844,390,f088e453-662c-46dd-90cb-5d8fad13440c,f088e453-662c-46dd-90cb-5d8fad13440c,projectseed_production_april2024,2,,163505,258,html-button-response,"Mozilla/5.0 (iPhone; CPU iPhone OS 17_4_1 like Mac OS X) AppleWebKit/605.1.15 (KHTML, like Gecko) Version/17.4.1 Mobile/15E148 Safari/604.1",,1667,980,-150.0,-1150.0,50.0,50.0,163439.0,D,467.0,163906.0,65.0,0.0,3.0,1850.0,50.0,
0,1234,-999999,0,0,IowaTask-v2.0,-mobile,jspsych-0.3a-mobile,1,List1,2024-04-29,0,0,projectseed-iowa-production,0.0-0.0-2.0-0.65,eng,6e64b31c6348ac9d094febdaa4fdb26e97e83af1,True,adolescent,419.0,844,390,844,390,f088e453-662c-46dd-90cb-5d8fad13440c,f088e453-662c-46dd-90cb-5d8fad13440c,projectseed_production_april2024,2,,165239,262,html-button-response,"Mozilla/5.0 (iPhone; CPU iPhone OS 17_4_1 like Mac OS X) AppleWebKit/605.1.15 (KHTML, like Gecko) Version/17.4.1 Mobile/15E148 Safari/604.1",,1667,980,-150.0,-1150.0,50.0,-200.0,165221.00000000003,B,419.0,165640.00000000003,66.0,-1250.0,1.0,700.0,-1150.0,
0,1234,-999999,0,0,IowaTask-v2.0,-mobile,jspsych-0.3a-mobile,1,List1,2024-04-29,0,0,projectseed-iowa-production,0.0-0.0-2.0-0.66,eng,6e64b31c6348ac9d094febdaa4fdb26e97e83af1,True,adolescent,497.0,844,390,844,390,f088e453-662c-46dd-90cb-5d8fad13440c,f088e453-662c-46dd-90cb-5d8fad13440c,projectseed_production_april2024,2,,168058,266,html-button-response,"Mozilla/5.0 (iPhone; CPU iPhone OS 17_4_1 like Mac OS X) AppleWebKit/605.1.15 (KHTML, like Gecko) Version/17.4.1 Mobile/15E148 Safari/604.1",,1667,980,-150.0,100.0,50.0,-200.0,167962.0,A,497.0,168459.0,67.0,-250.0,0.0,550.0,-150.0,
0,1234,-999999,0,0,IowaTask-v2.0,-mobile,jspsych-0.3a-mobile,1,List1,2024-04-29,0,0,projectseed-iowa-production,0.0-0.0-2.0-0.67,eng,6e64b31c6348ac9d094febdaa4fdb26e97e83af1,True,adolescent,569.0,844,390,844,390,f088e453-662c-46dd-90cb-5d8fad13440c,f088e453-662c-46dd-90cb-5d8fad13440c,projectseed_production_april2024,2,,170944,270,html-button-response,"Mozilla/5.0 (iPhone; CPU iPhone OS 17_4_1 like Mac OS X) AppleWebKit/605.1.15 (KHTML, like Gecko) Version/17.4.1 Mobile/15E148 Safari/604.1",,1667,980,100.0,100.0,50.0,-200.0,170775.0,C,569.0,171344.0,68.0,0.0,2.0,600.0,50.0,
0,1234,-999999,0,0,IowaTask-v2.0,-mobile,jspsych-0.3a-mobile,1,List1,2024-04-29,0,0,projectseed-iowa-production,0.0-0.0-2.0-0.68,eng,6e64b31c6348ac9d094febdaa4fdb26e97e83af1,True,adolescent,585.0,844,390,844,390,f088e453-662c-46dd-90cb-5d8fad13440c,f088e453-662c-46dd-90cb-5d8fad13440c,projectseed_production_april2024,2,,172848,274,html-button-response,"Mozilla/5.0 (iPhone; CPU iPhone OS 17_4_1 like Mac OS X) AppleWebKit/605.1.15 (KHTML, like Gecko) Version/17.4.1 Mobile/15E148 Safari/604.1",,1667,980,100.0,100.0,25.0,-200.0,172664.0,D,585.0,173249.0,69.0,-250.0,3.0,400.0,-200.0,
0,1234,-999999,0,0,IowaTask-v2.0,-mobile,jspsych-0.3a-mobile,1,List1,2024-04-29,0,0,projectseed-iowa-production,0.0-0.0-2.0-0.69,eng,6e64b31c6348ac9d094febdaa4fdb26e97e83af1,True,adolescent,708.0,844,390,844,390,f088e453-662c-46dd-90cb-5d8fad13440c,f088e453-662c-46dd-90cb-5d8fad13440c,projectseed_production_april2024,2,,175872,278,html-button-response,"Mozilla/5.0 (iPhone; CPU iPhone OS 17_4_1 like Mac OS X) AppleWebKit/605.1.15 (KHTML, like Gecko) Version/17.4.1 Mobile/15E148 Safari/604.1",,1667,980,100.0,100.0,25.0,50.0,175565.0,C,708.0,176273.0,70.0,-25.0,2.0,425.0,25.0,
0,1234,-999999,0,0,IowaTask-v2.0,-mobile,jspsych-0.3a-mobile,1,List1,2024-04-29,0,0,projectseed-iowa-production,0.0-0.0-2.0-0.70,eng,6e64b31c6348ac9d094febdaa4fdb26e97e83af1,True,adolescent,447.0,844,390,844,390,f088e453-662c-46dd-90cb-5d8fad13440c,f088e453-662c-46dd-90cb-5d8fad13440c,projectseed_production_april2024,2,,178635,282,html-button-response,"Mozilla/5.0 (iPhone; CPU iPhone OS 17_4_1 like Mac OS X) AppleWebKit/605.1.15 (KHTML, like Gecko) Version/17.4.1 Mobile/15E148 Safari/604.1",,1667,980,100.0,100.0,50.0,50.0,178588.0,A,447.0,179035.0,71.0,0.0,0.0,525.0,100.0,
0,1234,-999999,0,0,IowaTask-v2.0,-mobile,jspsych-0.3a-mobile,1,List1,2024-04-29,0,0,projectseed-iowa-production,0.0-0.0-2.0-0.71,eng,6e64b31c6348ac9d094febdaa4fdb26e97e83af1,True,adolescent,1153.0,844,390,844,390,f088e453-662c-46dd-90cb-5d8fad13440c,f088e453-662c-46dd-90cb-5d8fad13440c,projectseed_production_april2024,2,,181107,286,html-button-response,"Mozilla/5.0 (iPhone; CPU iPhone OS 17_4_1 like Mac OS X) AppleWebKit/605.1.15 (KHTML, like Gecko) Version/17.4.1 Mobile/15E148 Safari/604.1",,1667,980,-50.0,100.0,50.0,50.0,180355.0,B,1153.0,181508.0,72.0,0.0,1.0,625.0,100.0,
0,1234,-999999,0,0,IowaTask-v2.0,-mobile,jspsych-0.3a-mobile,1,List1,2024-04-29,0,0,projectseed-iowa-production,0.0-0.0-2.0-0.72,eng,6e64b31c6348ac9d094febdaa4fdb26e97e83af1,True,adolescent,498.0,844,390,844,390,f088e453-662c-46dd-90cb-5d8fad13440c,f088e453-662c-46dd-90cb-5d8fad13440c,projectseed_production_april2024,2,,182923,290,html-button-response,"Mozilla/5.0 (iPhone; CPU iPhone OS 17_4_1 like Mac OS X) AppleWebKit/605.1.15 (KHTML, like Gecko) Version/17.4.1 Mobile/15E148 Safari/604.1",,1667,980,-50.0,100.0,50.0,50.0,182826.0,B,498.0,183324.0,73.0,0.0,1.0,725.0,100.0,
0,1234,-999999,0,0,IowaTask-v2.0,-mobile,jspsych-0.3a-mobile,1,List1,2024-04-29,0,0,projectseed-iowa-production,0.0-0.0-2.0-0.73,eng,6e64b31c6348ac9d094febdaa4fdb26e97e83af1,True,adolescent,553.0,844,390,844,390,f088e453-662c-46dd-90cb-5d8fad13440c,f088e453-662c-46dd-90cb-5d8fad13440c,projectseed_production_april2024,2,,184794,294,html-button-response,"Mozilla/5.0 (iPhone; CPU iPhone OS 17_4_1 like Mac OS X) AppleWebKit/605.1.15 (KHTML, like Gecko) Version/17.4.1 Mobile/15E148 Safari/604.1",,1667,980,-50.0,100.0,50.0,50.0,184642.0,B,553.0,185195.0,74.0,0.0,1.0,825.0,100.0,
0,1234,-999999,0,0,IowaTask-v2.0,-mobile,jspsych-0.3a-mobile,1,List1,2024-04-29,0,0,projectseed-iowa-production,0.0-0.0-2.0-0.74,eng,6e64b31c6348ac9d094febdaa4fdb26e97e83af1,True,adolescent,481.0,844,390,844,390,f088e453-662c-46dd-90cb-5d8fad13440c,f088e453-662c-46dd-90cb-5d8fad13440c,projectseed_production_april2024,2,,186595,298,html-button-response,"Mozilla/5.0 (iPhone; CPU iPhone OS 17_4_1 like Mac OS X) AppleWebKit/605.1.15 (KHTML, like Gecko) Version/17.4.1 Mobile/15E148 Safari/604.1",,1667,980,-50.0,100.0,50.0,50.0,186515.0,B,481.0,186996.0,75.0,0.0,1.0,925.0,100.0,
0,1234,-999999,0,0,IowaTask-v2.0,-mobile,jspsych-0.3a-mobile,1,List1,2024-04-29,0,0,projectseed-iowa-production,0.0-0.0-2.0-0.75,eng,6e64b31c6348ac9d094febdaa4fdb26e97e83af1,True,adolescent,481.0,844,390,844,390,f088e453-662c-46dd-90cb-5d8fad13440c,f088e453-662c-46dd-90cb-5d8fad13440c,projectseed_production_april2024,2,,188396,302,html-button-response,"Mozilla/5.0 (iPhone; CPU iPhone OS 17_4_1 like Mac OS X) AppleWebKit/605.1.15 (KHTML, like Gecko) Version/17.4.1 Mobile/15E148 Safari/604.1",,1667,980,-50.0,100.0,50.0,50.0,188316.0,A,481.0,188797.0,76.0,-150.0,0.0,875.0,-50.0,
0,1234,-999999,0,0,IowaTask-v2.0,-mobile,jspsych-0.3a-mobile,1,List1,2024-04-29,0,0,projectseed-iowa-production,0.0-0.0-2.0-0.76,eng,6e64b31c6348ac9d094febdaa4fdb26e97e83af1,True,adolescent,419.0,844,390,844,390,f088e453-662c-46dd-90cb-5d8fad13440c,f088e453-662c-46dd-90cb-5d8fad13440c,projectseed_production_april2024,2,,191131,306,html-button-response,"Mozilla/5.0 (iPhone; CPU iPhone OS 17_4_1 like Mac OS X) AppleWebKit/605.1.15 (KHTML, like Gecko) Version/17.4.1 Mobile/15E148 Safari/604.1",,1667,980,100.0,100.0,50.0,50.0,191113.0,C,419.0,191532.0,77.0,0.0,2.0,925.0,50.0,
0,1234,-999999,0,0,IowaTask-v2.0,-mobile,jspsych-0.3a-mobile,1,List1,2024-04-29,0,0,projectseed-iowa-production,0.0-0.0-2.0-0.77,eng,6e64b31c6348ac9d094febdaa4fdb26e97e83af1,True,adolescent,468.0,844,390,844,390,f088e453-662c-46dd-90cb-5d8fad13440c,f088e453-662c-46dd-90cb-5d8fad13440c,projectseed_production_april2024,2,,192917,310,html-button-response,"Mozilla/5.0 (iPhone; CPU iPhone OS 17_4_1 like Mac OS X) AppleWebKit/605.1.15 (KHTML, like Gecko) Version/17.4.1 Mobile/15E148 Safari/604.1",,1667,980,100.0,100.0,0.0,50.0,192850.0,B,468.0,193318.0,78.0,0.0,1.0,1025.0,100.0,
0,1234,-999999,0,0,IowaTask-v2.0,-mobile,jspsych-0.3a-mobile,1,List1,2024-04-29,0,0,projectseed-iowa-production,0.0-0.0-2.0-0.78,eng,6e64b31c6348ac9d094febdaa4fdb26e97e83af1,True,adolescent,518.0,844,390,844,390,f088e453-662c-46dd-90cb-5d8fad13440c,f088e453-662c-46dd-90cb-5d8fad13440c,projectseed_production_april2024,2,,194753,314,html-button-response,"Mozilla/5.0 (iPhone; CPU iPhone OS 17_4_1 like Mac OS X) AppleWebKit/605.1.15 (KHTML, like Gecko) Version/17.4.1 Mobile/15E148 Safari/604.1",,1667,980,100.0,100.0,0.0,50.0,194636.0,B,518.0,195154.0,79.0,0.0,1.0,1125.0,100.0,
0,1234,-999999,0,0,IowaTask-v2.0,-mobile,jspsych-0.3a-mobile,1,List1,2024-04-29,0,0,projectseed-iowa-production,0.0-0.0-2.0-0.79,eng,6e64b31c6348ac9d094febdaa4fdb26e97e83af1,True,adolescent,445.0,844,390,844,390,f088e453-662c-46dd-90cb-5d8fad13440c,f088e453-662c-46dd-90cb-5d8fad13440c,projectseed_production_april2024,2,,196518,318,html-button-response,"Mozilla/5.0 (iPhone; CPU iPhone OS 17_4_1 like Mac OS X) AppleWebKit/605.1.15 (KHTML, like Gecko) Version/17.4.1 Mobile/15E148 Safari/604.1",,1667,980,100.0,100.0,0.0,50.0,196473.0,D,445.0,196918.0,80.0,0.0,3.0,1175.0,50.0,
0,1234,-999999,0,0,IowaTask-v2.0,-mobile,jspsych-0.3a-mobile,1,List1,2024-04-29,0,0,projectseed-iowa-production,0.0-0.0-2.0-0.80,eng,6e64b31c6348ac9d094febdaa4fdb26e97e83af1,True,adolescent,527.0,844,390,844,390,f088e453-662c-46dd-90cb-5d8fad13440c,f088e453-662c-46dd-90cb-5d8fad13440c,projectseed_production_april2024,2,,198356,322,html-button-response,"Mozilla/5.0 (iPhone; CPU iPhone OS 17_4_1 like Mac OS X) AppleWebKit/605.1.15 (KHTML, like Gecko) Version/17.4.1 Mobile/15E148 Safari/604.1",,1667,980,100.0,100.0,0.0,50.0,198230.0,C,527.0,198757.0,81.0,-50.0,2.0,1175.0,0.0,
0,1234,-999999,0,0,IowaTask-v2.0,-mobile,jspsych-0.3a-mobile,1,List1,2024-04-29,0,0,projectseed-iowa-production,0.0-0.0-2.0-0.81,eng,6e64b31c6348ac9d094febdaa4fdb26e97e83af1,True,adolescent,438.0,844,390,844,390,f088e453-662c-46dd-90cb-5d8fad13440c,f088e453-662c-46dd-90cb-5d8fad13440c,projectseed_production_april2024,2,,201111,326,html-button-response,"Mozilla/5.0 (iPhone; CPU iPhone OS 17_4_1 like Mac OS X) AppleWebKit/605.1.15 (KHTML, like Gecko) Version/17.4.1 Mobile/15E148 Safari/604.1",,1667,980,100.0,100.0,50.0,50.0,201074.0,B,438.0,201512.0,82.0,0.0,1.0,1275.0,100.0,
0,1234,-999999,0,0,IowaTask-v2.0,-mobile,jspsych-0.3a-mobile,1,List1,2024-04-29,0,0,projectseed-iowa-production,0.0-0.0-2.0-0.82,eng,6e64b31c6348ac9d094febdaa4fdb26e97e83af1,True,adolescent,668.0,844,390,844,390,f088e453-662c-46dd-90cb-5d8fad13440c,f088e453-662c-46dd-90cb-5d8fad13440c,projectseed_production_april2024,2,,203095,330,html-button-response,"Mozilla/5.0 (iPhone; CPU iPhone OS 17_4_1 like Mac OS X) AppleWebKit/605.1.15 (KHTML, like Gecko) Version/17.4.1 Mobile/15E148 Safari/604.1",,1667,980,100.0,100.0,50.0,50.0,202828.0,B,668.0,203496.0,83.0,0.0,1.0,1375.0,100.0,
0,1234,-999999,0,0,IowaTask-v2.0,-mobile,jspsych-0.3a-mobile,1,List1,2024-04-29,0,0,projectseed-iowa-production,0.0-0.0-2.0-0.83,eng,6e64b31c6348ac9d094febdaa4fdb26e97e83af1,True,adolescent,1419.0,844,390,844,390,f088e453-662c-46dd-90cb-5d8fad13440c,f088e453-662c-46dd-90cb-5d8fad13440c,projectseed_production_april2024,2,,205832,334,html-button-response,"Mozilla/5.0 (iPhone; CPU iPhone OS 17_4_1 like Mac OS X) AppleWebKit/605.1.15 (KHTML, like Gecko) Version/17.4.1 Mobile/15E148 Safari/604.1",,1667,980,100.0,100.0,50.0,50.0,204814.0,A,1419.0,206233.0,84.0,0.0,0.0,1475.0,100.0,
0,1234,-999999,0,0,IowaTask-v2.0,-mobile,jspsych-0.3a-mobile,1,List1,2024-04-29,0,0,projectseed-iowa-production,0.0-0.0-2.0-0.84,eng,6e64b31c6348ac9d094febdaa4fdb26e97e83af1,True,adolescent,500.0,844,390,844,390,f088e453-662c-46dd-90cb-5d8fad13440c,f088e453-662c-46dd-90cb-5d8fad13440c,projectseed_production_april2024,2,,207649,338,html-button-response,"Mozilla/5.0 (iPhone; CPU iPhone OS 17_4_1 like Mac OS X) AppleWebKit/605.1.15 (KHTML, like Gecko) Version/17.4.1 Mobile/15E148 Safari/604.1",,1667,980,100.0,100.0,50.0,50.0,207550.0,A,500.0,208050.0,85.0,0.0,0.0,1575.0,100.0,
0,1234,-999999,0,0,IowaTask-v2.0,-mobile,jspsych-0.3a-mobile,1,List1,2024-04-29,0,0,projectseed-iowa-production,0.0-0.0-2.0-0.85,eng,6e64b31c6348ac9d094febdaa4fdb26e97e83af1,True,adolescent,488.0,844,390,844,390,f088e453-662c-46dd-90cb-5d8fad13440c,f088e453-662c-46dd-90cb-5d8fad13440c,projectseed_production_april2024,2,,209455,342,html-button-response,"Mozilla/5.0 (iPhone; CPU iPhone OS 17_4_1 like Mac OS X) AppleWebKit/605.1.15 (KHTML, like Gecko) Version/17.4.1 Mobile/15E148 Safari/604.1",,1667,980,100.0,100.0,50.0,50.0,209368.0,B,488.0,209856.0,86.0,0.0,1.0,1675.0,100.0,
0,1234,-999999,0,0,IowaTask-v2.0,-mobile,jspsych-0.3a-mobile,1,List1,2024-04-29,0,0,projectseed-iowa-production,0.0-0.0-2.0-0.86,eng,6e64b31c6348ac9d094febdaa4fdb26e97e83af1,True,adolescent,697.0,844,390,844,390,f088e453-662c-46dd-90cb-5d8fad13440c,f088e453-662c-46dd-90cb-5d8fad13440c,projectseed_production_april2024,2,,211474,346,html-button-response,"Mozilla/5.0 (iPhone; CPU iPhone OS 17_4_1 like Mac OS X) AppleWebKit/605.1.15 (KHTML, like Gecko) Version/17.4.1 Mobile/15E148 Safari/604.1",,1667,980,100.0,100.0,50.0,50.0,211178.0,C,697.0,211875.0,87.0,0.0,2.0,1725.0,50.0,
0,1234,-999999,0,0,IowaTask-v2.0,-mobile,jspsych-0.3a-mobile,1,List1,2024-04-29,0,0,projectseed-iowa-production,0.0-0.0-2.0-0.87,eng,6e64b31c6348ac9d094febdaa4fdb26e97e83af1,True,adolescent,533.0,844,390,844,390,f088e453-662c-46dd-90cb-5d8fad13440c,f088e453-662c-46dd-90cb-5d8fad13440c,projectseed_production_april2024,2,,213325,350,html-button-response,"Mozilla/5.0 (iPhone; CPU iPhone OS 17_4_1 like Mac OS X) AppleWebKit/605.1.15 (KHTML, like Gecko) Version/17.4.1 Mobile/15E148 Safari/604.1",,1667,980,100.0,100.0,25.0,50.0,213193.0,D,533.0,213726.0,88.0,0.0,3.0,1775.0,50.0,
0,1234,-999999,0,0,IowaTask-v2.0,-mobile,jspsych-0.3a-mobile,1,List1,2024-04-29,0,0,projectseed-iowa-production,0.0-0.0-2.0-0.88,eng,6e64b31c6348ac9d094febdaa4fdb26e97e83af1,True,adolescent,820.0,844,390,844,390,f088e453-662c-46dd-90cb-5d8fad13440c,f088e453-662c-46dd-90cb-5d8fad13440c,projectseed_production_april2024,2,,215465,354,html-button-response,"Mozilla/5.0 (iPhone; CPU iPhone OS 17_4_1 like Mac OS X) AppleWebKit/605.1.15 (KHTML, like Gecko) Version/17.4.1 Mobile/15E148 Safari/604.1",,1667,980,100.0,100.0,25.0,50.0,215046.0,B,820.0,215866.0,89.0,0.0,1.0,1875.0,100.0,
0,1234,-999999,0,0,IowaTask-v2.0,-mobile,jspsych-0.3a-mobile,1,List1,2024-04-29,0,0,projectseed-iowa-production,0.0-0.0-2.0-0.89,eng,6e64b31c6348ac9d094febdaa4fdb26e97e83af1,True,adolescent,545.0,844,390,844,390,f088e453-662c-46dd-90cb-5d8fad13440c,f088e453-662c-46dd-90cb-5d8fad13440c,projectseed_production_april2024,2,,217329,358,html-button-response,"Mozilla/5.0 (iPhone; CPU iPhone OS 17_4_1 like Mac OS X) AppleWebKit/605.1.15 (KHTML, like Gecko) Version/17.4.1 Mobile/15E148 Safari/604.1",,1667,980,100.0,100.0,25.0,50.0,217185.00000000003,A,545.0,217730.00000000003,90.0,0.0,0.0,1975.0,100.0,
0,1234,-999999,0,0,IowaTask-v2.0,-mobile,jspsych-0.3a-mobile,1,List1,2024-04-29,0,0,projectseed-iowa-production,0.0-0.0-2.0-0.90,eng,6e64b31c6348ac9d094febdaa4fdb26e97e83af1,True,adolescent,750.0,844,390,844,390,f088e453-662c-46dd-90cb-5d8fad13440c,f088e453-662c-46dd-90cb-5d8fad13440c,projectseed_production_april2024,2,,219397,362,html-button-response,"Mozilla/5.0 (iPhone; CPU iPhone OS 17_4_1 like Mac OS X) AppleWebKit/605.1.15 (KHTML, like Gecko) Version/17.4.1 Mobile/15E148 Safari/604.1",,1667,980,-250.0,100.0,25.0,50.0,219048.0,A,750.0,219798.0,91.0,-350.0,0.0,1725.0,-250.0,
0,1234,-999999,0,0,IowaTask-v2.0,-mobile,jspsych-0.3a-mobile,1,List1,2024-04-29,0,0,projectseed-iowa-production,0.0-0.0-2.0-0.91,eng,6e64b31c6348ac9d094febdaa4fdb26e97e83af1,True,adolescent,553.0,844,390,844,390,f088e453-662c-46dd-90cb-5d8fad13440c,f088e453-662c-46dd-90cb-5d8fad13440c,projectseed_production_april2024,2,,222267,366,html-button-response,"Mozilla/5.0 (iPhone; CPU iPhone OS 17_4_1 like Mac OS X) AppleWebKit/605.1.15 (KHTML, like Gecko) Version/17.4.1 Mobile/15E148 Safari/604.1",,1667,980,-200.0,100.0,25.0,50.0,222115.0,B,553.0,222668.0,92.0,0.0,1.0,1825.0,100.0,
0,1234,-999999,0,0,IowaTask-v2.0,-mobile,jspsych-0.3a-mobile,1,List1,2024-04-29,0,0,projectseed-iowa-production,0.0-0.0-2.0-0.92,eng,6e64b31c6348ac9d094febdaa4fdb26e97e83af1,True,adolescent,648.0,844,390,844,390,f088e453-662c-46dd-90cb-5d8fad13440c,f088e453-662c-46dd-90cb-5d8fad13440c,projectseed_production_april2024,2,,224232,370,html-button-response,"Mozilla/5.0 (iPhone; CPU iPhone OS 17_4_1 like Mac OS X) AppleWebKit/605.1.15 (KHTML, like Gecko) Version/17.4.1 Mobile/15E148 Safari/604.1",,1667,980,-200.0,-1150.0,25.0,50.0,223985.0,C,648.0,224633.0,93.0,-25.0,2.0,1850.0,25.0,
0,1234,-999999,0,0,IowaTask-v2.0,-mobile,jspsych-0.3a-mobile,1,List1,2024-04-29,0,0,projectseed-iowa-production,0.0-0.0-2.0-0.93,eng,6e64b31c6348ac9d094febdaa4fdb26e97e83af1,True,adolescent,514.0,844,390,844,390,f088e453-662c-46dd-90cb-5d8fad13440c,f088e453-662c-46dd-90cb-5d8fad13440c,projectseed_production_april2024,2,,227068,374,html-button-response,"Mozilla/5.0 (iPhone; CPU iPhone OS 17_4_1 like Mac OS X) AppleWebKit/605.1.15 (KHTML, like Gecko) Version/17.4.1 Mobile/15E148 Safari/604.1",,1667,980,-200.0,-1150.0,50.0,50.0,226955.0,D,514.0,227469.0,94.0,0.0,3.0,1900.0,50.0,
0,1234,-999999,0,0,IowaTask-v2.0,-mobile,jspsych-0.3a-mobile,1,List1,2024-04-29,0,0,projectseed-iowa-production,0.0-0.0-2.0-0.94,eng,6e64b31c6348ac9d094febdaa4fdb26e97e83af1,True,adolescent,569.0,844,390,844,390,f088e453-662c-46dd-90cb-5d8fad13440c,f088e453-662c-46dd-90cb-5d8fad13440c,projectseed_production_april2024,2,,228956,378,html-button-response,"Mozilla/5.0 (iPhone; CPU iPhone OS 17_4_1 like Mac OS X) AppleWebKit/605.1.15 (KHTML, like Gecko) Version/17.4.1 Mobile/15E148 Safari/604.1",,1667,980,-200.0,-1150.0,50.0,50.0,228788.0,C,569.0,229357.0,95.0,0.0,2.0,1950.0,50.0,
0,1234,-999999,0,0,IowaTask-v2.0,-mobile,jspsych-0.3a-mobile,1,List1,2024-04-29,0,0,projectseed-iowa-production,0.0-0.0-2.0-0.95,eng,6e64b31c6348ac9d094febdaa4fdb26e97e83af1,True,adolescent,468.0,844,390,844,390,f088e453-662c-46dd-90cb-5d8fad13440c,f088e453-662c-46dd-90cb-5d8fad13440c,projectseed_production_april2024,2,,230741,382,html-button-response,"Mozilla/5.0 (iPhone; CPU iPhone OS 17_4_1 like Mac OS X) AppleWebKit/605.1.15 (KHTML, like Gecko) Version/17.4.1 Mobile/15E148 Safari/604.1",,1667,980,-200.0,-1150.0,25.0,50.0,230674.0,D,468.0,231142.0,96.0,0.0,3.0,2000.0,50.0,
0,1234,-999999,0,0,IowaTask-v2.0,-mobile,jspsych-0.3a-mobile,1,List1,2024-04-29,0,0,projectseed-iowa-production,0.0-0.0-2.0-0.96,eng,6e64b31c6348ac9d094febdaa4fdb26e97e83af1,True,adolescent,650.0,844,390,844,390,f088e453-662c-46dd-90cb-5d8fad13440c,f088e453-662c-46dd-90cb-5d8fad13440c,projectseed_production_april2024,2,,232709,386,html-button-response,"Mozilla/5.0 (iPhone; CPU iPhone OS 17_4_1 like Mac OS X) AppleWebKit/605.1.15 (KHTML, like Gecko) Version/17.4.1 Mobile/15E148 Safari/604.1",,1667,980,-200.0,-1150.0,25.0,50.0,232460.0,B,650.0,233110.0,97.0,-1250.0,1.0,850.0,-1150.0,
0,1234,-999999,0,0,IowaTask-v2.0,-mobile,jspsych-0.3a-mobile,1,List1,2024-04-29,0,0,projectseed-iowa-production,0.0-0.0-2.0-0.97,eng,6e64b31c6348ac9d094febdaa4fdb26e97e83af1,True,adolescent,1032.0,844,390,844,390,f088e453-662c-46dd-90cb-5d8fad13440c,f088e453-662c-46dd-90cb-5d8fad13440c,projectseed_production_april2024,2,,236063,390,html-button-response,"Mozilla/5.0 (iPhone; CPU iPhone OS 17_4_1 like Mac OS X) AppleWebKit/605.1.15 (KHTML, like Gecko) Version/17.4.1 Mobile/15E148 Safari/604.1",,1667,980,-200.0,100.0,25.0,50.0,235432.0,A,1032.0,236464.0,98.0,-300.0,0.0,650.0,-200.0,
0,1234,-999999,0,0,IowaTask-v2.0,-mobile,jspsych-0.3a-mobile,1,List1,2024-04-29,0,0,projectseed-iowa-production,0.0-0.0-2.0-0.98,eng,6e64b31c6348ac9d094febdaa4fdb26e97e83af1,True,adolescent,536.0,844,390,844,390,f088e453-662c-46dd-90cb-5d8fad13440c,f088e453-662c-46dd-90cb-5d8fad13440c,projectseed_production_april2024,2,,238917,394,html-button-response,"Mozilla/5.0 (iPhone; CPU iPhone OS 17_4_1 like Mac OS X) AppleWebKit/605.1.15 (KHTML, like Gecko) Version/17.4.1 Mobile/15E148 Safari/604.1",,1667,980,100.0,100.0,25.0,50.0,238782.0,B,536.0,239318.0,99.0,0.0,1.0,750.0,100.0,
0,1234,-999999,0,0,IowaTask-v2.0,-mobile,jspsych-0.3a-mobile,1,List1,2024-04-29,0,0,projectseed-iowa-production,0.0-0.0-2.0-0.99,eng,6e64b31c6348ac9d094febdaa4fdb26e97e83af1,True,adolescent,484.0,844,390,844,390,f088e453-662c-46dd-90cb-5d8fad13440c,f088e453-662c-46dd-90cb-5d8fad13440c,projectseed_production_april2024,2,,240719,398,html-button-response,"Mozilla/5.0 (iPhone; CPU iPhone OS 17_4_1 like Mac OS X) AppleWebKit/605.1.15 (KHTML, like Gecko) Version/17.4.1 Mobile/15E148 Safari/604.1",,1667,980,100.0,100.0,25.0,50.0,240636.0,B,484.0,241120.0,100.0,0.0,1.0,850.0,100.0,
0,1234,-999999,0,0,IowaTask-v2.0,-mobile,jspsych-0.3a-mobile,1,List1,2024-04-29,0,0,projectseed-iowa-production,0.0-0.0-2.0-0.100,eng,6e64b31c6348ac9d094febdaa4fdb26e97e83af1,True,adolescent,490.0,844,390,844,390,f088e453-662c-46dd-90cb-5d8fad13440c,f088e453-662c-46dd-90cb-5d8fad13440c,projectseed_production_april2024,2,,242521,402,html-button-response,"Mozilla/5.0 (iPhone; CPU iPhone OS 17_4_1 like Mac OS X) AppleWebKit/605.1.15 (KHTML, like Gecko) Version/17.4.1 Mobile/15E148 Safari/604.1",,1667,980,100.0,100.0,25.0,50.0,242432.0,D,490.0,242922.0,101.0,0.0,3.0,900.0,50.0,
0,1234,-999999,0,0,IowaTask-v2.0,-mobile,jspsych-0.3a-mobile,1,List1,2024-04-29,0,0,projectseed-iowa-production,0.0-0.0-2.0-0.101,eng,6e64b31c6348ac9d094febdaa4fdb26e97e83af1,True,adolescent,384.0,844,390,844,390,f088e453-662c-46dd-90cb-5d8fad13440c,f088e453-662c-46dd-90cb-5d8fad13440c,projectseed_production_april2024,2,,244223,406,html-button-response,"Mozilla/5.0 (iPhone; CPU iPhone OS 17_4_1 like Mac OS X) AppleWebKit/605.1.15 (KHTML, like Gecko) Version/17.4.1 Mobile/15E148 Safari/604.1",,1667,980,100.0,100.0,25.0,50.0,244240.0,C,384.0,244624.0,102.0,-25.0,2.0,925.0,25.0,
0,1234,-999999,0,0,IowaTask-v2.0,-mobile,jspsych-0.3a-mobile,1,List1,2024-04-29,0,0,projectseed-iowa-production,0.0-0.0-2.0-0.102,eng,6e64b31c6348ac9d094febdaa4fdb26e97e83af1,True,adolescent,112.0,844,390,844,390,f088e453-662c-46dd-90cb-5d8fad13440c,f088e453-662c-46dd-90cb-5d8fad13440c,projectseed_production_april2024,2,,246652,410,html-button-response,"Mozilla/5.0 (iPhone; CPU iPhone OS 17_4_1 like Mac OS X) AppleWebKit/605.1.15 (KHTML, like Gecko) Version/17.4.1 Mobile/15E148 Safari/604.1",,1667,980,100.0,100.0,-25.0,50.0,246941.0,D,112.0,247053.0,103.0,0.0,3.0,975.0,50.0,
0,1234,-999999,0,0,IowaTask-v2.0,-mobile,jspsych-0.3a-mobile,1,List1,2024-04-29,0,0,projectseed-iowa-production,0.0-0.0-2.0-0.103,eng,6e64b31c6348ac9d094febdaa4fdb26e97e83af1,True,adolescent,427.0,844,390,844,390,f088e453-662c-46dd-90cb-5d8fad13440c,f088e453-662c-46dd-90cb-5d8fad13440c,projectseed_production_april2024,2,,248396,414,html-button-response,"Mozilla/5.0 (iPhone; CPU iPhone OS 17_4_1 like Mac OS X) AppleWebKit/605.1.15 (KHTML, like Gecko) Version/17.4.1 Mobile/15E148 Safari/604.1",,1667,980,100.0,100.0,-25.0,50.0,248370.0,C,427.0,248797.0,104.0,-75.0,2.0,950.0,-25.0,
0,1234,-999999,0,0,IowaTask-v2.0,-mobile,jspsych-0.3a-mobile,1,List1,2024-04-29,0,0,projectseed-iowa-production,0.0-0.0-2.0-0.104,eng,6e64b31c6348ac9d094febdaa4fdb26e97e83af1,True,adolescent,363.0,844,390,844,390,f088e453-662c-46dd-90cb-5d8fad13440c,f088e453-662c-46dd-90cb-5d8fad13440c,projectseed_production_april2024,2,,251082,418,html-button-response,"Mozilla/5.0 (iPhone; CPU iPhone OS 17_4_1 like Mac OS X) AppleWebKit/605.1.15 (KHTML, like Gecko) Version/17.4.1 Mobile/15E148 Safari/604.1",,1667,980,100.0,100.0,50.0,50.0,251120.0,D,363.0,251483.0,105.0,0.0,3.0,1000.0,50.0,
0,1234,-999999,0,0,IowaTask-v2.0,-mobile,jspsych-0.3a-mobile,1,List1,2024-04-29,0,0,projectseed-iowa-production,0.0-0.0-2.0-0.105,eng,6e64b31c6348ac9d094febdaa4fdb26e97e83af1,True,adolescent,433.0,844,390,844,390,f088e453-662c-46dd-90cb-5d8fad13440c,f088e453-662c-46dd-90cb-5d8fad13440c,projectseed_production_april2024,2,,252833,422,html-button-response,"Mozilla/5.0 (iPhone; CPU iPhone OS 17_4_1 like Mac OS X) AppleWebKit/605.1.15 (KHTML, like Gecko) Version/17.4.1 Mobile/15E148 Safari/604.1",,1667,980,100.0,100.0,50.0,50.0,252801.0,D,433.0,253234.0,106.0,0.0,3.0,1050.0,50.0,
0,1234,-999999,0,0,IowaTask-v2.0,-mobile,jspsych-0.3a-mobile,1,List1,2024-04-29,0,0,projectseed-iowa-production,0.0-0.0-2.0-0.106,eng,6e64b31c6348ac9d094febdaa4fdb26e97e83af1,True,adolescent,551.0,844,390,844,390,f088e453-662c-46dd-90cb-5d8fad13440c,f088e453-662c-46dd-90cb-5d8fad13440c,projectseed_production_april2024,2,,254702,426,html-button-response,"Mozilla/5.0 (iPhone; CPU iPhone OS 17_4_1 like Mac OS X) AppleWebKit/605.1.15 (KHTML, like Gecko) Version/17.4.1 Mobile/15E148 Safari/604.1",,1667,980,100.0,100.0,50.0,50.0,254552.0,D,551.0,255103.0,107.0,0.0,3.0,1100.0,50.0,
0,1234,-999999,0,0,IowaTask-v2.0,-mobile,jspsych-0.3a-mobile,1,List1,2024-04-29,0,0,projectseed-iowa-production,0.0-0.0-2.0-0.107,eng,6e64b31c6348ac9d094febdaa4fdb26e97e83af1,True,adolescent,517.0,844,390,844,390,f088e453-662c-46dd-90cb-5d8fad13440c,f088e453-662c-46dd-90cb-5d8fad13440c,projectseed_production_april2024,2,,256537,430,html-button-response,"Mozilla/5.0 (iPhone; CPU iPhone OS 17_4_1 like Mac OS X) AppleWebKit/605.1.15 (KHTML, like Gecko) Version/17.4.1 Mobile/15E148 Safari/604.1",,1667,980,100.0,100.0,50.0,50.0,256421.0,A,517.0,256938.0,108.0,0.0,0.0,1200.0,100.0,
0,1234,-999999,0,0,IowaTask-v2.0,-mobile,jspsych-0.3a-mobile,1,List1,2024-04-29,0,0,projectseed-iowa-production,0.0-0.0-2.0-0.108,eng,6e64b31c6348ac9d094febdaa4fdb26e97e83af1,True,adolescent,483.0,844,390,844,390,f088e453-662c-46dd-90cb-5d8fad13440c,f088e453-662c-46dd-90cb-5d8fad13440c,projectseed_production_april2024,2,,258339,434,html-button-response,"Mozilla/5.0 (iPhone; CPU iPhone OS 17_4_1 like Mac OS X) AppleWebKit/605.1.15 (KHTML, like Gecko) Version/17.4.1 Mobile/15E148 Safari/604.1",,1667,980,100.0,100.0,50.0,50.0,258257.0,D,483.0,258740.0,109.0,0.0,3.0,1250.0,50.0,
0,1234,-999999,0,0,IowaTask-v2.0,-mobile,jspsych-0.3a-mobile,1,List1,2024-04-29,0,0,projectseed-iowa-production,0.0-0.0-2.0-0.109,eng,6e64b31c6348ac9d094febdaa4fdb26e97e83af1,True,adolescent,479.0,844,390,844,390,f088e453-662c-46dd-90cb-5d8fad13440c,f088e453-662c-46dd-90cb-5d8fad13440c,projectseed_production_april2024,2,,260136,438,html-button-response,"Mozilla/5.0 (iPhone; CPU iPhone OS 17_4_1 like Mac OS X) AppleWebKit/605.1.15 (KHTML, like Gecko) Version/17.4.1 Mobile/15E148 Safari/604.1",,1667,980,100.0,100.0,50.0,50.0,260057.99999999997,A,479.0,260536.99999999997,110.0,0.0,0.0,1350.0,100.0,
0,1234,-999999,0,0,IowaTask-v2.0,-mobile,jspsych-0.3a-mobile,1,List1,2024-04-29,0,0,projectseed-iowa-production,0.0-0.0-2.0-0.110,eng,6e64b31c6348ac9d094febdaa4fdb26e97e83af1,True,adolescent,457.0,844,390,844,390,f088e453-662c-46dd-90cb-5d8fad13440c,f088e453-662c-46dd-90cb-5d8fad13440c,projectseed_production_april2024,2,,261910,442,html-button-response,"Mozilla/5.0 (iPhone; CPU iPhone OS 17_4_1 like Mac OS X) AppleWebKit/605.1.15 (KHTML, like Gecko) Version/17.4.1 Mobile/15E148 Safari/604.1",,1667,980,-50.0,100.0,50.0,50.0,261854.0,D,457.0,262311.0,111.0,0.0,3.0,1400.0,50.0,
0,1234,-999999,0,0,IowaTask-v2.0,-mobile,jspsych-0.3a-mobile,1,List1,2024-04-29,0,0,projectseed-iowa-production,0.0-0.0-2.0-0.111,eng,6e64b31c6348ac9d094febdaa4fdb26e97e83af1,True,adolescent,538.0,844,390,844,390,f088e453-662c-46dd-90cb-5d8fad13440c,f088e453-662c-46dd-90cb-5d8fad13440c,projectseed_production_april2024,2,,263774,446,html-button-response,"Mozilla/5.0 (iPhone; CPU iPhone OS 17_4_1 like Mac OS X) AppleWebKit/605.1.15 (KHTML, like Gecko) Version/17.4.1 Mobile/15E148 Safari/604.1",,1667,980,-50.0,100.0,50.0,50.0,263636.0,B,538.0,264174.0,112.0,0.0,1.0,1500.0,100.0,
0,1234,-999999,0,0,IowaTask-v2.0,-mobile,jspsych-0.3a-mobile,1,List1,2024-04-29,0,0,projectseed-iowa-production,0.0-0.0-2.0-0.112,eng,6e64b31c6348ac9d094febdaa4fdb26e97e83af1,True,adolescent,538.0,844,390,844,390,f088e453-662c-46dd-90cb-5d8fad13440c,f088e453-662c-46dd-90cb-5d8fad13440c,projectseed_production_april2024,2,,265631,450,html-button-response,"Mozilla/5.0 (iPhone; CPU iPhone OS 17_4_1 like Mac OS X) AppleWebKit/605.1.15 (KHTML, like Gecko) Version/17.4.1 Mobile/15E148 Safari/604.1",,1667,980,-50.0,100.0,50.0,50.0,265494.0,D,538.0,266032.0,113.0,0.0,3.0,1550.0,50.0,
0,1234,-999999,0,0,IowaTask-v2.0,-mobile,jspsych-0.3a-mobile,1,List1,2024-04-29,0,0,projectseed-iowa-production,0.0-0.0-2.0-0.113,eng,6e64b31c6348ac9d094febdaa4fdb26e97e83af1,True,adolescent,498.0,844,390,844,390,f088e453-662c-46dd-90cb-5d8fad13440c,f088e453-662c-46dd-90cb-5d8fad13440c,projectseed_production_april2024,2,,267449,454,html-button-response,"Mozilla/5.0 (iPhone; CPU iPhone OS 17_4_1 like Mac OS X) AppleWebKit/605.1.15 (KHTML, like Gecko) Version/17.4.1 Mobile/15E148 Safari/604.1",,1667,980,-50.0,100.0,50.0,-200.0,267352.0,A,498.0,267850.0,114.0,-150.0,0.0,1500.0,-50.0,
0,1234,-999999,0,0,IowaTask-v2.0,-mobile,jspsych-0.3a-mobile,1,List1,2024-04-29,0,0,projectseed-iowa-production,0.0-0.0-2.0-0.114,eng,6e64b31c6348ac9d094febdaa4fdb26e97e83af1,True,adolescent,82.0,844,390,844,390,f088e453-662c-46dd-90cb-5d8fad13440c,f088e453-662c-46dd-90cb-5d8fad13440c,projectseed_production_april2024,2,,269844,458,html-button-response,"Mozilla/5.0 (iPhone; CPU iPhone OS 17_4_1 like Mac OS X) AppleWebKit/605.1.15 (KHTML, like Gecko) Version/17.4.1 Mobile/15E148 Safari/604.1",,1667,980,-100.0,100.0,50.0,-200.0,270162.0,C,82.0,270244.0,115.0,0.0,2.0,1550.0,50.0,
0,1234,-999999,0,0,IowaTask-v2.0,-mobile,jspsych-0.3a-mobile,1,List1,2024-04-29,0,0,projectseed-iowa-production,0.0-0.0-2.0-0.115,eng,6e64b31c6348ac9d094febdaa4fdb26e97e83af1,True,adolescent,459.0,844,390,844,390,f088e453-662c-46dd-90cb-5d8fad13440c,f088e453-662c-46dd-90cb-5d8fad13440c,projectseed_production_april2024,2,,271619,462,html-button-response,"Mozilla/5.0 (iPhone; CPU iPhone OS 17_4_1 like Mac OS X) AppleWebKit/605.1.15 (KHTML, like Gecko) Version/17.4.1 Mobile/15E148 Safari/604.1",,1667,980,-100.0,100.0,25.0,-200.0,271561.0,B,459.0,272020.0,116.0,0.0,1.0,1650.0,100.0,
0,1234,-999999,0,0,IowaTask-v2.0,-mobile,jspsych-0.3a-mobile,1,List1,2024-04-29,0,0,projectseed-iowa-production,0.0-0.0-2.0-0.116,eng,6e64b31c6348ac9d094febdaa4fdb26e97e83af1,True,adolescent,497.0,844,390,844,390,f088e453-662c-46dd-90cb-5d8fad13440c,f088e453-662c-46dd-90cb-5d8fad13440c,projectseed_production_april2024,2,,273437,466,html-button-response,"Mozilla/5.0 (iPhone; CPU iPhone OS 17_4_1 like Mac OS X) AppleWebKit/605.1.15 (KHTML, like Gecko) Version/17.4.1 Mobile/15E148 Safari/604.1",,1667,980,-100.0,100.0,25.0,-200.0,273341.0,D,497.0,273838.0,117.0,-250.0,3.0,1450.0,-200.0,
0,1234,-999999,0,0,IowaTask-v2.0,-mobile,jspsych-0.3a-mobile,1,List1,2024-04-29,0,0,projectseed-iowa-production,0.0-0.0-2.0-0.117,eng,6e64b31c6348ac9d094febdaa4fdb26e97e83af1,True,adolescent,452.0,844,390,844,390,f088e453-662c-46dd-90cb-5d8fad13440c,f088e453-662c-46dd-90cb-5d8fad13440c,projectseed_production_april2024,2,,276207,470,html-button-response,"Mozilla/5.0 (iPhone; CPU iPhone OS 17_4_1 like Mac OS X) AppleWebKit/605.1.15 (KHTML, like Gecko) Version/17.4.1 Mobile/15E148 Safari/604.1",,1667,980,-100.0,100.0,25.0,50.0,276156.0,A,452.0,276608.0,118.0,-200.0,0.0,1350.0,-100.0,
0,1234,-999999,0,0,IowaTask-v2.0,-mobile,jspsych-0.3a-mobile,1,List1,2024-04-29,0,0,projectseed-iowa-production,0.0-0.0-2.0-0.118,eng,6e64b31c6348ac9d094febdaa4fdb26e97e83af1,True,adolescent,331.0,844,390,844,390,f088e453-662c-46dd-90cb-5d8fad13440c,f088e453-662c-46dd-90cb-5d8fad13440c,projectseed_production_april2024,2,,278853,474,html-button-response,"Mozilla/5.0 (iPhone; CPU iPhone OS 17_4_1 like Mac OS X) AppleWebKit/605.1.15 (KHTML, like Gecko) Version/17.4.1 Mobile/15E148 Safari/604.1",,1667,980,-150.0,100.0,25.0,50.0,278923.0,B,331.0,279254.0,119.0,0.0,1.0,1450.0,100.0,
0,1234,-999999,0,0,IowaTask-v2.0,-mobile,jspsych-0.3a-mobile,1,List1,2024-04-29,0,0,projectseed-iowa-production,0.0-0.0-2.0-0.119,eng,6e64b31c6348ac9d094febdaa4fdb26e97e83af1,True,adolescent,524.0,844,390,844,390,f088e453-662c-46dd-90cb-5d8fad13440c,f088e453-662c-46dd-90cb-5d8fad13440c,projectseed_production_april2024,2,,280696,478,html-button-response,"Mozilla/5.0 (iPhone; CPU iPhone OS 17_4_1 like Mac OS X) AppleWebKit/605.1.15 (KHTML, like Gecko) Version/17.4.1 Mobile/15E148 Safari/604.1",,1667,980,-150.0,100.0,25.0,50.0,280573.0,B,524.0,281097.0,120.0,0.0,1.0,1550.0,100.0,
0,1234,-999999,0,0,IowaTask-v2.0,-mobile,jspsych-0.3a-mobile,1,List1,2024-04-29,0,0,projectseed-iowa-production,0.0-0.0-2.0-0.120,eng,6e64b31c6348ac9d094febdaa4fdb26e97e83af1,True,adolescent,616.0,844,390,844,390,f088e453-662c-46dd-90cb-5d8fad13440c,f088e453-662c-46dd-90cb-5d8fad13440c,projectseed_production_april2024,2,,282629,482,html-button-response,"Mozilla/5.0 (iPhone; CPU iPhone OS 17_4_1 like Mac OS X) AppleWebKit/605.1.15 (KHTML, like Gecko) Version/17.4.1 Mobile/15E148 Safari/604.1",,1667,980,-150.0,100.0,25.0,50.0,282414.00000000006,B,616.0,283030.00000000006,121.0,0.0,1.0,1650.0,100.0,
0,1234,-999999,0,0,IowaTask-v2.0,-mobile,jspsych-0.3a-mobile,1,List1,2024-04-29,0,0,projectseed-iowa-production,0.0-0.0-2.0-0.121,eng,6e64b31c6348ac9d094febdaa4fdb26e97e83af1,True,adolescent,1555.0,844,390,844,390,f088e453-662c-46dd-90cb-5d8fad13440c,f088e453-662c-46dd-90cb-5d8fad13440c,projectseed_production_april2024,2,,285501,486,html-button-response,"Mozilla/5.0 (iPhone; CPU iPhone OS 17_4_1 like Mac OS X) AppleWebKit/605.1.15 (KHTML, like Gecko) Version/17.4.1 Mobile/15E148 Safari/604.1",,1667,980,-150.0,100.0,25.0,50.0,284347.0,B,1555.0,285902.0,122.0,0.0,1.0,1750.0,100.0,
0,1234,-999999,0,0,IowaTask-v2.0,-mobile,jspsych-0.3a-mobile,1,List1,2024-04-29,0,0,projectseed-iowa-production,0.0-0.0-2.0-0.122,eng,6e64b31c6348ac9d094febdaa4fdb26e97e83af1,True,adolescent,4191.0,844,390,844,390,f088e453-662c-46dd-90cb-5d8fad13440c,f088e453-662c-46dd-90cb-5d8fad13440c,projectseed_production_april2024,2,,291023,490,html-button-response,"Mozilla/5.0 (iPhone; CPU iPhone OS 17_4_1 like Mac OS X) AppleWebKit/605.1.15 (KHTML, like Gecko) Version/17.4.1 Mobile/15E148 Safari/604.1",,1667,980,-150.0,100.0,25.0,50.0,287233.0,B,4191.0,291424.0,123.0,0.0,1.0,1850.0,100.0,
0,1234,-999999,0,0,IowaTask-v2.0,-mobile,jspsych-0.3a-mobile,1,List1,2024-04-29,0,0,projectseed-iowa-production,0.0-0.0-2.0-0.123,eng,6e64b31c6348ac9d094febdaa4fdb26e97e83af1,True,adolescent,515.0,844,390,844,390,f088e453-662c-46dd-90cb-5d8fad13440c,f088e453-662c-46dd-90cb-5d8fad13440c,projectseed_production_april2024,2,,292859,494,html-button-response,"Mozilla/5.0 (iPhone; CPU iPhone OS 17_4_1 like Mac OS X) AppleWebKit/605.1.15 (KHTML, like Gecko) Version/17.4.1 Mobile/15E148 Safari/604.1",,1667,980,-150.0,100.0,25.0,50.0,292745.0,B,515.0,293260.0,124.0,0.0,1.0,1950.0,100.0,
0,1234,-999999,0,0,IowaTask-v2.0,-mobile,jspsych-0.3a-mobile,1,List1,2024-04-29,0,0,projectseed-iowa-production,0.0-0.0-2.0-0.124,eng,6e64b31c6348ac9d094febdaa4fdb26e97e83af1,True,adolescent,617.0,844,390,844,390,f088e453-662c-46dd-90cb-5d8fad13440c,f088e453-662c-46dd-90cb-5d8fad13440c,projectseed_production_april2024,2,,294794,498,html-button-response,"Mozilla/5.0 (iPhone; CPU iPhone OS 17_4_1 like Mac OS X) AppleWebKit/605.1.15 (KHTML, like Gecko) Version/17.4.1 Mobile/15E148 Safari/604.1",,1667,980,-150.0,100.0,25.0,50.0,294578.0,B,617.0,295195.0,125.0,0.0,1.0,2050.0,100.0,
0,1234,-999999,0,0,IowaTask-v2.0,-mobile,jspsych-0.3a-mobile,1,List1,2024-04-29,0,0,projectseed-iowa-production,0.0-0.0-2.0-0.125,eng,6e64b31c6348ac9d094febdaa4fdb26e97e83af1,True,adolescent,718.0,844,390,844,390,f088e453-662c-46dd-90cb-5d8fad13440c,f088e453-662c-46dd-90cb-5d8fad13440c,projectseed_production_april2024,2,,296830,502,html-button-response,"Mozilla/5.0 (iPhone; CPU iPhone OS 17_4_1 like Mac OS X) AppleWebKit/605.1.15 (KHTML, like Gecko) Version/17.4.1 Mobile/15E148 Safari/604.1",,1667,980,-150.0,100.0,25.0,50.0,296513.0,D,718.0,297231.0,126.0,0.0,3.0,2100.0,50.0,
0,1234,-999999,0,0,IowaTask-v2.0,-mobile,jspsych-0.3a-mobile,1,List1,2024-04-29,0,0,projectseed-iowa-production,0.0-0.0-2.0-0.126,eng,6e64b31c6348ac9d094febdaa4fdb26e97e83af1,True,adolescent,513.0,844,390,844,390,f088e453-662c-46dd-90cb-5d8fad13440c,f088e453-662c-46dd-90cb-5d8fad13440c,projectseed_production_april2024,2,,298661,506,html-button-response,"Mozilla/5.0 (iPhone; CPU iPhone OS 17_4_1 like Mac OS X) AppleWebKit/605.1.15 (KHTML, like Gecko) Version/17.4.1 Mobile/15E148 Safari/604.1",,1667,980,-150.0,100.0,25.0,50.0,298549.0,B,513.0,299062.0,127.0,0.0,1.0,2200.0,100.0,
0,1234,-999999,0,0,IowaTask-v2.0,-mobile,jspsych-0.3a-mobile,1,List1,2024-04-29,0,0,projectseed-iowa-production,0.0-0.0-2.0-0.127,eng,6e64b31c6348ac9d094febdaa4fdb26e97e83af1,True,adolescent,520.0,844,390,844,390,f088e453-662c-46dd-90cb-5d8fad13440c,f088e453-662c-46dd-90cb-5d8fad13440c,projectseed_production_april2024,2,,300499,510,html-button-response,"Mozilla/5.0 (iPhone; CPU iPhone OS 17_4_1 like Mac OS X) AppleWebKit/605.1.15 (KHTML, like Gecko) Version/17.4.1 Mobile/15E148 Safari/604.1",,1667,980,-150.0,100.0,25.0,50.0,300380.00000000006,D,520.0,300900.00000000006,128.0,0.0,3.0,2250.0,50.0,
0,1234,-999999,0,0,IowaTask-v2.0,-mobile,jspsych-0.3a-mobile,1,List1,2024-04-29,0,0,projectseed-iowa-production,0.0-0.0-2.0-0.128,eng,6e64b31c6348ac9d094febdaa4fdb26e97e83af1,True,adolescent,551.0,844,390,844,390,f088e453-662c-46dd-90cb-5d8fad13440c,f088e453-662c-46dd-90cb-5d8fad13440c,projectseed_production_april2024,2,,302368,514,html-button-response,"Mozilla/5.0 (iPhone; CPU iPhone OS 17_4_1 like Mac OS X) AppleWebKit/605.1.15 (KHTML, like Gecko) Version/17.4.1 Mobile/15E148 Safari/604.1",,1667,980,-150.0,100.0,25.0,50.0,302218.0,B,551.0,302769.0,129.0,0.0,1.0,2350.0,100.0,
0,1234,-999999,0,0,IowaTask-v2.0,-mobile,jspsych-0.3a-mobile,1,List1,2024-04-29,0,0,projectseed-iowa-production,0.0-0.0-2.0-0.129,eng,6e64b31c6348ac9d094febdaa4fdb26e97e83af1,True,adolescent,484.0,844,390,844,390,f088e453-662c-46dd-90cb-5d8fad13440c,f088e453-662c-46dd-90cb-5d8fad13440c,projectseed_production_april2024,2,,304170,518,html-button-response,"Mozilla/5.0 (iPhone; CPU iPhone OS 17_4_1 like Mac OS X) AppleWebKit/605.1.15 (KHTML, like Gecko) Version/17.4.1 Mobile/15E148 Safari/604.1",,1667,980,-150.0,100.0,25.0,50.0,304087.0,D,484.0,304571.0,130.0,0.0,3.0,2400.0,50.0,
0,1234,-999999,0,0,IowaTask-v2.0,-mobile,jspsych-0.3a-mobile,1,List1,2024-04-29,0,0,projectseed-iowa-production,0.0-0.0-2.0-0.130,eng,6e64b31c6348ac9d094febdaa4fdb26e97e83af1,True,adolescent,550.0,844,390,844,390,f088e453-662c-46dd-90cb-5d8fad13440c,f088e453-662c-46dd-90cb-5d8fad13440c,projectseed_production_april2024,2,,306039,522,html-button-response,"Mozilla/5.0 (iPhone; CPU iPhone OS 17_4_1 like Mac OS X) AppleWebKit/605.1.15 (KHTML, like Gecko) Version/17.4.1 Mobile/15E148 Safari/604.1",,1667,980,-150.0,100.0,25.0,50.0,305890.0,A,550.0,306440.0,131.0,-250.0,0.0,2250.0,-150.0,
0,1234,-999999,0,0,IowaTask-v2.0,-mobile,jspsych-0.3a-mobile,1,List1,2024-04-29,0,0,projectseed-iowa-production,0.0-0.0-2.0-0.131,eng,6e64b31c6348ac9d094febdaa4fdb26e97e83af1,True,adolescent,517.0,844,390,844,390,f088e453-662c-46dd-90cb-5d8fad13440c,f088e453-662c-46dd-90cb-5d8fad13440c,projectseed_production_april2024,2,,308873,526,html-button-response,"Mozilla/5.0 (iPhone; CPU iPhone OS 17_4_1 like Mac OS X) AppleWebKit/605.1.15 (KHTML, like Gecko) Version/17.4.1 Mobile/15E148 Safari/604.1",,1667,980,100.0,100.0,25.0,50.0,308757.0,D,517.0,309274.0,132.0,0.0,3.0,2300.0,50.0,
0,1234,-999999,0,0,IowaTask-v2.0,-mobile,jspsych-0.3a-mobile,1,List1,2024-04-29,0,0,projectseed-iowa-production,0.0-0.0-2.0-0.132,eng,6e64b31c6348ac9d094febdaa4fdb26e97e83af1,True,adolescent,619.0,844,390,844,390,f088e453-662c-46dd-90cb-5d8fad13440c,f088e453-662c-46dd-90cb-5d8fad13440c,projectseed_production_april2024,2,,310811,530,html-button-response,"Mozilla/5.0 (iPhone; CPU iPhone OS 17_4_1 like Mac OS X) AppleWebKit/605.1.15 (KHTML, like Gecko) Version/17.4.1 Mobile/15E148 Safari/604.1",,1667,980,100.0,100.0,25.0,50.0,310593.0,B,619.0,311212.0,133.0,0.0,1.0,2400.0,100.0,
0,1234,-999999,0,0,IowaTask-v2.0,-mobile,jspsych-0.3a-mobile,1,List1,2024-04-29,0,0,projectseed-iowa-production,0.0-0.0-2.0-0.133,eng,6e64b31c6348ac9d094febdaa4fdb26e97e83af1,True,adolescent,785.0,844,390,844,390,f088e453-662c-46dd-90cb-5d8fad13440c,f088e453-662c-46dd-90cb-5d8fad13440c,projectseed_production_april2024,2,,312914,534,html-button-response,"Mozilla/5.0 (iPhone; CPU iPhone OS 17_4_1 like Mac OS X) AppleWebKit/605.1.15 (KHTML, like Gecko) Version/17.4.1 Mobile/15E148 Safari/604.1",,1667,980,100.0,100.0,25.0,50.0,312530.0,D,785.0,313315.0,134.0,0.0,3.0,2450.0,50.0,
0,1234,-999999,0,0,IowaTask-v2.0,-mobile,jspsych-0.3a-mobile,1,List1,2024-04-29,0,0,projectseed-iowa-production,0.0-0.0-2.0-0.134,eng,6e64b31c6348ac9d094febdaa4fdb26e97e83af1,True,adolescent,1469.0,844,390,844,390,f088e453-662c-46dd-90cb-5d8fad13440c,f088e453-662c-46dd-90cb-5d8fad13440c,projectseed_production_april2024,2,,315701,538,html-button-response,"Mozilla/5.0 (iPhone; CPU iPhone OS 17_4_1 like Mac OS X) AppleWebKit/605.1.15 (KHTML, like Gecko) Version/17.4.1 Mobile/15E148 Safari/604.1",,1667,980,100.0,100.0,25.0,50.0,314633.00000000006,B,1469.0,316102.00000000006,135.0,0.0,1.0,2550.0,100.0,
0,1234,-999999,0,0,IowaTask-v2.0,-mobile,jspsych-0.3a-mobile,1,List1,2024-04-29,0,0,projectseed-iowa-production,0.0-0.0-2.0-0.135,eng,6e64b31c6348ac9d094febdaa4fdb26e97e83af1,True,adolescent,698.0,844,390,844,390,f088e453-662c-46dd-90cb-5d8fad13440c,f088e453-662c-46dd-90cb-5d8fad13440c,projectseed_production_april2024,2,,317718,542,html-button-response,"Mozilla/5.0 (iPhone; CPU iPhone OS 17_4_1 like Mac OS X) AppleWebKit/605.1.15 (KHTML, like Gecko) Version/17.4.1 Mobile/15E148 Safari/604.1",,1667,980,100.0,-1150.0,25.0,50.0,317421.0,C,698.0,318119.0,136.0,-25.0,2.0,2575.0,25.0,
0,1234,-999999,0,0,IowaTask-v2.0,-mobile,jspsych-0.3a-mobile,1,List1,2024-04-29,0,0,projectseed-iowa-production,0.0-0.0-2.0-0.136,eng,6e64b31c6348ac9d094febdaa4fdb26e97e83af1,True,adolescent,2616.0,844,390,844,390,f088e453-662c-46dd-90cb-5d8fad13440c,f088e453-662c-46dd-90cb-5d8fad13440c,projectseed_production_april2024,2,,322657,546,html-button-response,"Mozilla/5.0 (iPhone; CPU iPhone OS 17_4_1 like Mac OS X) AppleWebKit/605.1.15 (KHTML, like Gecko) Version/17.4.1 Mobile/15E148 Safari/604.1",,1667,980,100.0,-1150.0,50.0,50.0,320442.0,D,2616.0,323058.0,137.0,0.0,3.0,2625.0,50.0,
0,1234,-999999,0,0,IowaTask-v2.0,-mobile,jspsych-0.3a-mobile,1,List1,2024-04-29,0,0,projectseed-iowa-production,0.0-0.0-2.0-0.137,eng,6e64b31c6348ac9d094febdaa4fdb26e97e83af1,True,adolescent,468.0,844,390,844,390,f088e453-662c-46dd-90cb-5d8fad13440c,f088e453-662c-46dd-90cb-5d8fad13440c,projectseed_production_april2024,2,,324445,550,html-button-response,"Mozilla/5.0 (iPhone; CPU iPhone OS 17_4_1 like Mac OS X) AppleWebKit/605.1.15 (KHTML, like Gecko) Version/17.4.1 Mobile/15E148 Safari/604.1",,1667,980,100.0,-1150.0,50.0,50.0,324378.0,B,468.0,324846.0,138.0,-1250.0,1.0,1475.0,-1150.0,
0,1234,-999999,0,0,IowaTask-v2.0,-mobile,jspsych-0.3a-mobile,1,List1,2024-04-29,0,0,projectseed-iowa-production,0.0-0.0-2.0-0.138,eng,6e64b31c6348ac9d094febdaa4fdb26e97e83af1,True,adolescent,717.0,844,390,844,390,f088e453-662c-46dd-90cb-5d8fad13440c,f088e453-662c-46dd-90cb-5d8fad13440c,projectseed_production_april2024,2,,327479,554,html-button-response,"Mozilla/5.0 (iPhone; CPU iPhone OS 17_4_1 like Mac OS X) AppleWebKit/605.1.15 (KHTML, like Gecko) Version/17.4.1 Mobile/15E148 Safari/604.1",,1667,980,100.0,100.0,50.0,50.0,327163.0,A,717.0,327880.0,139.0,0.0,0.0,1575.0,100.0,
0,1234,-999999,0,0,IowaTask-v2.0,-mobile,jspsych-0.3a-mobile,1,List1,2024-04-29,0,0,projectseed-iowa-production,0.0-0.0-2.0-0.139,eng,6e64b31c6348ac9d094febdaa4fdb26e97e83af1,True,adolescent,632.0,844,390,844,390,f088e453-662c-46dd-90cb-5d8fad13440c,f088e453-662c-46dd-90cb-5d8fad13440c,projectseed_production_april2024,2,,329433,558,html-button-response,"Mozilla/5.0 (iPhone; CPU iPhone OS 17_4_1 like Mac OS X) AppleWebKit/605.1.15 (KHTML, like Gecko) Version/17.4.1 Mobile/15E148 Safari/604.1",,1667,980,100.0,100.0,50.0,50.0,329202.0,D,632.0,329834.0,140.0,0.0,3.0,1625.0,50.0,
0,1234,-999999,0,0,IowaTask-v2.0,-mobile,jspsych-0.3a-mobile,1,List1,2024-04-29,0,0,projectseed-iowa-production,0.0-0.0-2.0-0.140,eng,6e64b31c6348ac9d094febdaa4fdb26e97e83af1,True,adolescent,550.0,844,390,844,390,f088e453-662c-46dd-90cb-5d8fad13440c,f088e453-662c-46dd-90cb-5d8fad13440c,projectseed_production_april2024,2,,331302,562,html-button-response,"Mozilla/5.0 (iPhone; CPU iPhone OS 17_4_1 like Mac OS X) AppleWebKit/605.1.15 (KHTML, like Gecko) Version/17.4.1 Mobile/15E148 Safari/604.1",,1667,980,100.0,100.0,50.0,50.0,331153.00000000006,C,550.0,331703.00000000006,141.0,0.0,2.0,1675.0,50.0,
0,1234,-999999,0,0,IowaTask-v2.0,-mobile,jspsych-0.3a-mobile,1,List1,2024-04-29,0,0,projectseed-iowa-production,0.0-0.0-2.0-0.141,eng,6e64b31c6348ac9d094febdaa4fdb26e97e83af1,True,adolescent,449.0,844,390,844,390,f088e453-662c-46dd-90cb-5d8fad13440c,f088e453-662c-46dd-90cb-5d8fad13440c,projectseed_production_april2024,2,,333069,566,html-button-response,"Mozilla/5.0 (iPhone; CPU iPhone OS 17_4_1 like Mac OS X) AppleWebKit/605.1.15 (KHTML, like Gecko) Version/17.4.1 Mobile/15E148 Safari/604.1",,1667,980,100.0,100.0,0.0,50.0,333021.0,B,449.0,333470.0,142.0,0.0,1.0,1775.0,100.0,
0,1234,-999999,0,0,IowaTask-v2.0,-mobile,jspsych-0.3a-mobile,1,List1,2024-04-29,0,0,projectseed-iowa-production,0.0-0.0-2.0-0.142,eng,6e64b31c6348ac9d094febdaa4fdb26e97e83af1,True,adolescent,521.0,844,390,844,390,f088e453-662c-46dd-90cb-5d8fad13440c,f088e453-662c-46dd-90cb-5d8fad13440c,projectseed_production_april2024,2,,334905,570,html-button-response,"Mozilla/5.0 (iPhone; CPU iPhone OS 17_4_1 like Mac OS X) AppleWebKit/605.1.15 (KHTML, like Gecko) Version/17.4.1 Mobile/15E148 Safari/604.1",,1667,980,100.0,100.0,0.0,50.0,334785.0,D,521.0,335306.0,143.0,0.0,3.0,1825.0,50.0,
0,1234,-999999,0,0,IowaTask-v2.0,-mobile,jspsych-0.3a-mobile,1,List1,2024-04-29,0,0,projectseed-iowa-production,0.0-0.0-2.0-0.143,eng,6e64b31c6348ac9d094febdaa4fdb26e97e83af1,True,adolescent,329.0,844,390,844,390,f088e453-662c-46dd-90cb-5d8fad13440c,f088e453-662c-46dd-90cb-5d8fad13440c,projectseed_production_april2024,2,,336553,574,html-button-response,"Mozilla/5.0 (iPhone; CPU iPhone OS 17_4_1 like Mac OS X) AppleWebKit/605.1.15 (KHTML, like Gecko) Version/17.4.1 Mobile/15E148 Safari/604.1",,1667,980,100.0,100.0,0.0,-200.0,336625.0,B,329.0,336954.0,144.0,0.0,1.0,1925.0,100.0,
0,1234,-999999,0,0,IowaTask-v2.0,-mobile,jspsych-0.3a-mobile,1,List1,2024-04-29,0,0,projectseed-iowa-production,0.0-0.0-2.0-0.144,eng,6e64b31c6348ac9d094febdaa4fdb26e97e83af1,True,adolescent,114.0,844,390,844,390,f088e453-662c-46dd-90cb-5d8fad13440c,f088e453-662c-46dd-90cb-5d8fad13440c,projectseed_production_april2024,2,,337983,578,html-button-response,"Mozilla/5.0 (iPhone; CPU iPhone OS 17_4_1 like Mac OS X) AppleWebKit/605.1.15 (KHTML, like Gecko) Version/17.4.1 Mobile/15E148 Safari/604.1",,1667,980,100.0,100.0,0.0,-200.0,338270.0,D,114.0,338384.0,145.0,-250.0,3.0,1725.0,-200.0,
0,1234,-999999,0,0,IowaTask-v2.0,-mobile,jspsych-0.3a-mobile,1,List1,2024-04-29,0,0,projectseed-iowa-production,0.0-0.0-2.0-0.145,eng,6e64b31c6348ac9d094febdaa4fdb26e97e83af1,True,adolescent,121.0,844,390,844,390,f088e453-662c-46dd-90cb-5d8fad13440c,f088e453-662c-46dd-90cb-5d8fad13440c,projectseed_production_april2024,2,,340419,582,html-button-response,"Mozilla/5.0 (iPhone; CPU iPhone OS 17_4_1 like Mac OS X) AppleWebKit/605.1.15 (KHTML, like Gecko) Version/17.4.1 Mobile/15E148 Safari/604.1",,1667,980,100.0,100.0,0.0,50.0,340699.0,A,121.0,340820.0,146.0,0.0,0.0,1825.0,100.0,
0,1234,-999999,0,0,IowaTask-v2.0,-mobile,jspsych-0.3a-mobile,1,List1,2024-04-29,0,0,projectseed-iowa-production,0.0-0.0-2.0-0.146,eng,6e64b31c6348ac9d094febdaa4fdb26e97e83af1,True,adolescent,443.0,844,390,844,390,f088e453-662c-46dd-90cb-5d8fad13440c,f088e453-662c-46dd-90cb-5d8fad13440c,projectseed_production_april2024,2,,342179,586,html-button-response,"Mozilla/5.0 (iPhone; CPU iPhone OS 17_4_1 like Mac OS X) AppleWebKit/605.1.15 (KHTML, like Gecko) Version/17.4.1 Mobile/15E148 Safari/604.1",,1667,980,-50.0,100.0,0.0,50.0,342137.0,B,443.0,342580.0,147.0,0.0,1.0,1925.0,100.0,
0,1234,-999999,0,0,IowaTask-v2.0,-mobile,jspsych-0.3a-mobile,1,List1,2024-04-29,0,0,projectseed-iowa-production,0.0-0.0-2.0-0.147,eng,6e64b31c6348ac9d094febdaa4fdb26e97e83af1,True,adolescent,464.0,844,390,844,390,f088e453-662c-46dd-90cb-5d8fad13440c,f088e453-662c-46dd-90cb-5d8fad13440c,projectseed_production_april2024,2,,343963,590,html-button-response,"Mozilla/5.0 (iPhone; CPU iPhone OS 17_4_1 like Mac OS X) AppleWebKit/605.1.15 (KHTML, like Gecko) Version/17.4.1 Mobile/15E148 Safari/604.1",,1667,980,-50.0,100.0,0.0,50.0,343900.00000000006,C,464.0,344364.00000000006,148.0,-50.0,2.0,1925.0,0.0,
0,1234,-999999,0,0,IowaTask-v2.0,-mobile,jspsych-0.3a-mobile,1,List1,2024-04-29,0,0,projectseed-iowa-production,0.0-0.0-2.0-0.148,eng,6e64b31c6348ac9d094febdaa4fdb26e97e83af1,True,adolescent,113.0,844,390,844,390,f088e453-662c-46dd-90cb-5d8fad13440c,f088e453-662c-46dd-90cb-5d8fad13440c,projectseed_production_april2024,2,,346392,594,html-button-response,"Mozilla/5.0 (iPhone; CPU iPhone OS 17_4_1 like Mac OS X) AppleWebKit/605.1.15 (KHTML, like Gecko) Version/17.4.1 Mobile/15E148 Safari/604.1",,1667,980,-50.0,100.0,50.0,50.0,346679.00000000006,B,113.0,346792.00000000006,149.0,0.0,1.0,2025.0,100.0,
0,1234,-999999,0,0,IowaTask-v2.0,-mobile,jspsych-0.3a-mobile,1,List1,2024-04-29,0,0,projectseed-iowa-production,0.0-0.0-2.0-0.149,eng,6e64b31c6348ac9d094febdaa4fdb26e97e83af1,True,adolescent,460.0,844,390,844,390,f088e453-662c-46dd-90cb-5d8fad13440c,f088e453-662c-46dd-90cb-5d8fad13440c,projectseed_production_april2024,2,,348184,598,html-button-response,"Mozilla/5.0 (iPhone; CPU iPhone OS 17_4_1 like Mac OS X) AppleWebKit/605.1.15 (KHTML, like Gecko) Version/17.4.1 Mobile/15E148 Safari/604.1",,1667,980,-50.0,100.0,50.0,50.0,348125.0,B,460.0,348585.0,150.0,0.0,1.0,2125.0,100.0,
0,1234,-999999,0,0,IowaTask-v2.0,-mobile,jspsych-0.3a-mobile,1,List1,2024-04-29,0,0,projectseed-iowa-production,0.0-0.0-2.0-0.150,eng,6e64b31c6348ac9d094febdaa4fdb26e97e83af1,True,adolescent,782.0,844,390,844,390,f088e453-662c-46dd-90cb-5d8fad13440c,f088e453-662c-46dd-90cb-5d8fad13440c,projectseed_production_april2024,2,,350286,602,html-button-response,"Mozilla/5.0 (iPhone; CPU iPhone OS 17_4_1 like Mac OS X) AppleWebKit/605.1.15 (KHTML, like Gecko) Version/17.4.1 Mobile/15E148 Safari/604.1",,1667,980,-50.0,100.0,50.0,50.0,349905.0,D,782.0,350687.0,151.0,0.0,3.0,2175.0,50.0,
0,1234,-999999,0,0,IowaTask-v2.0,-mobile,jspsych-0.3a-mobile,1,List1,2024-04-29,0,0,projectseed-iowa-production,0.0-0.0-2.0-0.151,eng,6e64b31c6348ac9d094febdaa4fdb26e97e83af1,True,adolescent,450.0,844,390,844,390,f088e453-662c-46dd-90cb-5d8fad13440c,f088e453-662c-46dd-90cb-5d8fad13440c,projectseed_production_april2024,2,,352057,606,html-button-response,"Mozilla/5.0 (iPhone; CPU iPhone OS 17_4_1 like Mac OS X) AppleWebKit/605.1.15 (KHTML, like Gecko) Version/17.4.1 Mobile/15E148 Safari/604.1",,1667,980,-50.0,100.0,50.0,50.0,352008.0,B,450.0,352458.0,152.0,0.0,1.0,2275.0,100.0,
0,1234,-999999,0,0,IowaTask-v2.0,-mobile,jspsych-0.3a-mobile,1,List1,2024-04-29,0,0,projectseed-iowa-production,0.0-0.0-2.0-0.152,eng,6e64b31c6348ac9d094febdaa4fdb26e97e83af1,True,adolescent,566.0,844,390,844,390,f088e453-662c-46dd-90cb-5d8fad13440c,f088e453-662c-46dd-90cb-5d8fad13440c,projectseed_production_april2024,2,,353941,610,html-button-response,"Mozilla/5.0 (iPhone; CPU iPhone OS 17_4_1 like Mac OS X) AppleWebKit/605.1.15 (KHTML, like Gecko) Version/17.4.1 Mobile/15E148 Safari/604.1",,1667,980,-50.0,-1150.0,50.0,50.0,353776.0,D,566.0,354342.0,153.0,0.0,3.0,2325.0,50.0,
0,1234,-999999,0,0,IowaTask-v2.0,-mobile,jspsych-0.3a-mobile,1,List1,2024-04-29,0,0,projectseed-iowa-production,0.0-0.0-2.0-0.153,eng,6e64b31c6348ac9d094febdaa4fdb26e97e83af1,True,adolescent,468.0,844,390,844,390,f088e453-662c-46dd-90cb-5d8fad13440c,f088e453-662c-46dd-90cb-5d8fad13440c,projectseed_production_april2024,2,,355727,614,html-button-response,"Mozilla/5.0 (iPhone; CPU iPhone OS 17_4_1 like Mac OS X) AppleWebKit/605.1.15 (KHTML, like Gecko) Version/17.4.1 Mobile/15E148 Safari/604.1",,1667,980,-50.0,-1150.0,50.0,50.0,355660.0,B,468.0,356128.0,154.0,-1250.0,1.0,1175.0,-1150.0,
0,1234,-999999,0,0,IowaTask-v2.0,-mobile,jspsych-0.3a-mobile,1,List1,2024-04-29,0,0,projectseed-iowa-production,0.0-0.0-2.0-0.154,eng,6e64b31c6348ac9d094febdaa4fdb26e97e83af1,True,adolescent,503.0,844,390,844,390,f088e453-662c-46dd-90cb-5d8fad13440c,f088e453-662c-46dd-90cb-5d8fad13440c,projectseed_production_april2024,2,,358546,618,html-button-response,"Mozilla/5.0 (iPhone; CPU iPhone OS 17_4_1 like Mac OS X) AppleWebKit/605.1.15 (KHTML, like Gecko) Version/17.4.1 Mobile/15E148 Safari/604.1",,1667,980,-50.0,100.0,50.0,50.0,358444.0,D,503.0,358947.0,155.0,0.0,3.0,1225.0,50.0,
0,1234,-999999,0,0,IowaTask-v2.0,-mobile,jspsych-0.3a-mobile,1,List1,2024-04-29,0,0,projectseed-iowa-production,0.0-0.0-2.0-0.155,eng,6e64b31c6348ac9d094febdaa4fdb26e97e83af1,True,adolescent,467.0,844,390,844,390,f088e453-662c-46dd-90cb-5d8fad13440c,f088e453-662c-46dd-90cb-5d8fad13440c,projectseed_production_april2024,2,,360331,622,html-button-response,"Mozilla/5.0 (iPhone; CPU iPhone OS 17_4_1 like Mac OS X) AppleWebKit/605.1.15 (KHTML, like Gecko) Version/17.4.1 Mobile/15E148 Safari/604.1",,1667,980,-50.0,100.0,50.0,50.0,360265.0,B,467.0,360732.0,156.0,0.0,1.0,1325.0,100.0,
0,1234,-999999,0,0,IowaTask-v2.0,-mobile,jspsych-0.3a-mobile,1,List1,2024-04-29,0,0,projectseed-iowa-production,0.0-0.0-2.0-0.156,eng,6e64b31c6348ac9d094febdaa4fdb26e97e83af1,True,adolescent,527.0,844,390,844,390,f088e453-662c-46dd-90cb-5d8fad13440c,f088e453-662c-46dd-90cb-5d8fad13440c,projectseed_production_april2024,2,,362184,626,html-button-response,"Mozilla/5.0 (iPhone; CPU iPhone OS 17_4_1 like Mac OS X) AppleWebKit/605.1.15 (KHTML, like Gecko) Version/17.4.1 Mobile/15E148 Safari/604.1",,1667,980,-50.0,100.0,50.0,50.0,362058.0,D,527.0,362585.0,157.0,0.0,3.0,1375.0,50.0,
0,1234,-999999,0,0,IowaTask-v2.0,-mobile,jspsych-0.3a-mobile,1,List1,2024-04-29,0,0,projectseed-iowa-production,0.0-0.0-2.0-0.157,eng,6e64b31c6348ac9d094febdaa4fdb26e97e83af1,True,adolescent,467.0,844,390,844,390,f088e453-662c-46dd-90cb-5d8fad13440c,f088e453-662c-46dd-90cb-5d8fad13440c,projectseed_production_april2024,2,,363968,630,html-button-response,"Mozilla/5.0 (iPhone; CPU iPhone OS 17_4_1 like Mac OS X) AppleWebKit/605.1.15 (KHTML, like Gecko) Version/17.4.1 Mobile/15E148 Safari/604.1",,1667,980,-50.0,100.0,50.0,50.0,363902.0,B,467.0,364369.0,158.0,0.0,1.0,1475.0,100.0,
0,1234,-999999,0,0,IowaTask-v2.0,-mobile,jspsych-0.3a-mobile,1,List1,2024-04-29,0,0,projectseed-iowa-production,0.0-0.0-2.0-0.158,eng,6e64b31c6348ac9d094febdaa4fdb26e97e83af1,True,adolescent,501.0,844,390,844,390,f088e453-662c-46dd-90cb-5d8fad13440c,f088e453-662c-46dd-90cb-5d8fad13440c,projectseed_production_april2024,2,,365787,634,html-button-response,"Mozilla/5.0 (iPhone; CPU iPhone OS 17_4_1 like Mac OS X) AppleWebKit/605.1.15 (KHTML, like Gecko) Version/17.4.1 Mobile/15E148 Safari/604.1",,1667,980,-50.0,100.0,50.0,50.0,365687.0,D,501.0,366188.0,159.0,0.0,3.0,1525.0,50.0,
0,1234,-999999,0,0,IowaTask-v2.0,-mobile,jspsych-0.3a-mobile,1,List1,2024-04-29,0,0,projectseed-iowa-production,0.0-0.0-2.0-0.159,eng,6e64b31c6348ac9d094febdaa4fdb26e97e83af1,True,adolescent,484.0,844,390,844,390,f088e453-662c-46dd-90cb-5d8fad13440c,f088e453-662c-46dd-90cb-5d8fad13440c,projectseed_production_april2024,2,,367590,638,html-button-response,"Mozilla/5.0 (iPhone; CPU iPhone OS 17_4_1 like Mac OS X) AppleWebKit/605.1.15 (KHTML, like Gecko) Version/17.4.1 Mobile/15E148 Safari/604.1",,1667,980,-50.0,100.0,50.0,50.0,367507.0,C,484.0,367991.0,160.0,0.0,2.0,1575.0,50.0,
0,1234,-999999,0,0,IowaTask-v2.0,-mobile,jspsych-0.3a-mobile,1,List1,2024-04-29,0,0,projectseed-iowa-production,0.0-0.0-2.0-0.160,eng,6e64b31c6348ac9d094febdaa4fdb26e97e83af1,True,adolescent,489.0,844,390,844,390,f088e453-662c-46dd-90cb-5d8fad13440c,f088e453-662c-46dd-90cb-5d8fad13440c,projectseed_production_april2024,2,,369397,642,html-button-response,"Mozilla/5.0 (iPhone; CPU iPhone OS 17_4_1 like Mac OS X) AppleWebKit/605.1.15 (KHTML, like Gecko) Version/17.4.1 Mobile/15E148 Safari/604.1",,1667,980,-50.0,100.0,-25.0,50.0,369309.0,A,489.0,369798.0,161.0,-150.0,0.0,1525.0,-50.0,
0,1234,-999999,0,0,IowaTask-v2.0,-mobile,jspsych-0.3a-mobile,1,List1,2024-04-29,0,0,projectseed-iowa-production,0.0-0.0-2.0-0.161,eng,6e64b31c6348ac9d094febdaa4fdb26e97e83af1,True,adolescent,158.0,844,390,844,390,f088e453-662c-46dd-90cb-5d8fad13440c,f088e453-662c-46dd-90cb-5d8fad13440c,projectseed_production_april2024,2,,371870,646,html-button-response,"Mozilla/5.0 (iPhone; CPU iPhone OS 17_4_1 like Mac OS X) AppleWebKit/605.1.15 (KHTML, like Gecko) Version/17.4.1 Mobile/15E148 Safari/604.1",,1667,980,-250.0,100.0,-25.0,50.0,372113.0,B,158.0,372271.0,162.0,0.0,1.0,1625.0,100.0,
0,1234,-999999,0,0,IowaTask-v2.0,-mobile,jspsych-0.3a-mobile,1,List1,2024-04-29,0,0,projectseed-iowa-production,0.0-0.0-2.0-0.162,eng,6e64b31c6348ac9d094febdaa4fdb26e97e83af1,True,adolescent,676.0,844,390,844,390,f088e453-662c-46dd-90cb-5d8fad13440c,f088e453-662c-46dd-90cb-5d8fad13440c,projectseed_production_april2024,2,,373864,650,html-button-response,"Mozilla/5.0 (iPhone; CPU iPhone OS 17_4_1 like Mac OS X) AppleWebKit/605.1.15 (KHTML, like Gecko) Version/17.4.1 Mobile/15E148 Safari/604.1",,1667,980,-250.0,100.0,-25.0,50.0,373589.0,A,676.0,374265.0,163.0,-350.0,0.0,1375.0,-250.0,
0,1234,-999999,0,0,IowaTask-v2.0,-mobile,jspsych-0.3a-mobile,1,List1,2024-04-29,0,0,projectseed-iowa-production,0.0-0.0-2.0-0.163,eng,6e64b31c6348ac9d094febdaa4fdb26e97e83af1,True,adolescent,554.0,844,390,844,390,f088e453-662c-46dd-90cb-5d8fad13440c,f088e453-662c-46dd-90cb-5d8fad13440c,projectseed_production_april2024,2,,376734,654,html-button-response,"Mozilla/5.0 (iPhone; CPU iPhone OS 17_4_1 like Mac OS X) AppleWebKit/605.1.15 (KHTML, like Gecko) Version/17.4.1 Mobile/15E148 Safari/604.1",,1667,980,-100.0,100.0,-25.0,50.0,376581.0,D,554.0,377135.0,164.0,0.0,3.0,1425.0,50.0,
0,1234,-999999,0,0,IowaTask-v2.0,-mobile,jspsych-0.3a-mobile,1,List1,2024-04-29,0,0,projectseed-iowa-production,0.0-0.0-2.0-0.164,eng,6e64b31c6348ac9d094febdaa4fdb26e97e83af1,True,adolescent,480.0,844,390,844,390,f088e453-662c-46dd-90cb-5d8fad13440c,f088e453-662c-46dd-90cb-5d8fad13440c,projectseed_production_april2024,2,,378532,658,html-button-response,"Mozilla/5.0 (iPhone; CPU iPhone OS 17_4_1 like Mac OS X) AppleWebKit/605.1.15 (KHTML, like Gecko) Version/17.4.1 Mobile/15E148 Safari/604.1",,1667,980,-100.0,100.0,-25.0,50.0,378453.0,B,480.0,378933.0,165.0,0.0,1.0,1525.0,100.0,
0,1234,-999999,0,0,IowaTask-v2.0,-mobile,jspsych-0.3a-mobile,1,List1,2024-04-29,0,0,projectseed-iowa-production,0.0-0.0-2.0-0.165,eng,6e64b31c6348ac9d094febdaa4fdb26e97e83af1,True,adolescent,543.0,844,390,844,390,f088e453-662c-46dd-90cb-5d8fad13440c,f088e453-662c-46dd-90cb-5d8fad13440c,projectseed_production_april2024,2,,380392,662,html-button-response,"Mozilla/5.0 (iPhone; CPU iPhone OS 17_4_1 like Mac OS X) AppleWebKit/605.1.15 (KHTML, like Gecko) Version/17.4.1 Mobile/15E148 Safari/604.1",,1667,980,-100.0,-1150.0,-25.0,50.0,380250.0,B,543.0,380793.0,166.0,-1250.0,1.0,375.0,-1150.0,
0,1234,-999999,0,0,IowaTask-v2.0,-mobile,jspsych-0.3a-mobile,1,List1,2024-04-29,0,0,projectseed-iowa-production,0.0-0.0-2.0-0.166,eng,6e64b31c6348ac9d094febdaa4fdb26e97e83af1,True,adolescent,122.0,844,390,844,390,f088e453-662c-46dd-90cb-5d8fad13440c,f088e453-662c-46dd-90cb-5d8fad13440c,projectseed_production_april2024,2,,382832,666,html-button-response,"Mozilla/5.0 (iPhone; CPU iPhone OS 17_4_1 like Mac OS X) AppleWebKit/605.1.15 (KHTML, like Gecko) Version/17.4.1 Mobile/15E148 Safari/604.1",,1667,980,-100.0,100.0,-25.0,50.0,383110.0,C,122.0,383232.0,167.0,-75.0,2.0,350.0,-25.0,
0,1234,-999999,0,0,IowaTask-v2.0,-mobile,jspsych-0.3a-mobile,1,List1,2024-04-29,0,0,projectseed-iowa-production,0.0-0.0-2.0-0.167,eng,6e64b31c6348ac9d094febdaa4fdb26e97e83af1,True,adolescent,479.0,844,390,844,390,f088e453-662c-46dd-90cb-5d8fad13440c,f088e453-662c-46dd-90cb-5d8fad13440c,projectseed_production_april2024,2,,385626,670,html-button-response,"Mozilla/5.0 (iPhone; CPU iPhone OS 17_4_1 like Mac OS X) AppleWebKit/605.1.15 (KHTML, like Gecko) Version/17.4.1 Mobile/15E148 Safari/604.1",,1667,980,-100.0,100.0,50.0,50.0,385548.0,D,479.0,386027.0,168.0,0.0,3.0,400.0,50.0,
0,1234,-999999,0,0,IowaTask-v2.0,-mobile,jspsych-0.3a-mobile,1,List1,2024-04-29,0,0,projectseed-iowa-production,0.0-0.0-2.0-0.168,eng,6e64b31c6348ac9d094febdaa4fdb26e97e83af1,True,adolescent,600.0,844,390,844,390,f088e453-662c-46dd-90cb-5d8fad13440c,f088e453-662c-46dd-90cb-5d8fad13440c,projectseed_production_april2024,2,,387545,674,html-button-response,"Mozilla/5.0 (iPhone; CPU iPhone OS 17_4_1 like Mac OS X) AppleWebKit/605.1.15 (KHTML, like Gecko) Version/17.4.1 Mobile/15E148 Safari/604.1",,1667,980,-100.0,100.0,50.0,-200.0,387346.0,B,600.0,387946.0,169.0,0.0,1.0,500.0,100.0,
0,1234,-999999,0,0,IowaTask-v2.0,-mobile,jspsych-0.3a-mobile,1,List1,2024-04-29,0,0,projectseed-iowa-production,0.0-0.0-2.0-0.169,eng,6e64b31c6348ac9d094febdaa4fdb26e97e83af1,True,adolescent,489.0,844,390,844,390,f088e453-662c-46dd-90cb-5d8fad13440c,f088e453-662c-46dd-90cb-5d8fad13440c,projectseed_production_april2024,2,,389352,678,html-button-response,"Mozilla/5.0 (iPhone; CPU iPhone OS 17_4_1 like Mac OS X) AppleWebKit/605.1.15 (KHTML, like Gecko) Version/17.4.1 Mobile/15E148 Safari/604.1",,1667,980,-100.0,100.0,50.0,-200.0,389264.0,D,489.0,389753.0,170.0,-250.0,3.0,300.0,-200.0,
